Folder: wwu_spec/csv_library (part 2)

File: FTIR_CARB_39_5.csv
Database of Origin,University of Winnipeg Spectrophotometer Facility
Sample Description,Carbonates and Oxolates -  D&P Spectra Reflectance spectra
Other Information,"Designs and Prototypes 102F spectra/Relative to infragold 1"" disk/Reflectance only"
Date Added,2018-08-06 21:06:09.618237

Data ID,FTIR_CARB_39_5
Sample ID,CRB114
Mineral Name,magnesite
Locality,Currant Creek/ Nevada/ USA
Grain Size,<45 um
Viewing Geometry,i=35/ e=0
Resolution,~3 cm-1
Formula,Mg(CO3)
Composition,Magnesite plus other stuff- probably huntite; some broad and low angle peaks.

Wavelength
2.001142,0.684147
2.008155,0.688236
2.015217,0.691169
2.022328,0.695654
2.029488,0.698074
2.036698,0.700402
2.043959,0.703606
2.051271,0.705219
2.058635,0.706783
2.066051,0.709434
2.073519,0.707679
2.081041,0.705645
2.088617,0.704302
2.096247,0.704766
2.103932,0.710123
2.111673,0.714133
2.119471,0.710829
2.127325,0.71192
2.135237,0.715722
2.143207,0.717318
2.151235,0.719368
2.159324,0.720662
2.167472,0.719755
2.175682,0.717171
2.183952,0.715643
2.192285,0.716165
2.200682,0.714071
2.209141,0.713463
2.217665,0.708236
2.226254,0.703114
2.23491,0.694835
2.243631,0.688605
2.252421,0.680642
2.261278,0.671529
2.270204,0.663713
2.279201,0.65583
2.288268,0.6455961
2.297406,0.636705
2.306617,0.619773
2.315901,0.597228
2.325259,0.598857
2.334692,0.605976
2.344201,0.630168
2.353787,0.652555
2.363451,0.654825
2.373194,0.643149
2.383016,0.633203
2.392919,0.632513
2.402903,0.629327
2.412971,0.628443
2.423122,0.616731
2.433358,0.609697
2.443679,0.607443
2.454088,0.6019
2.464585,0.598594
2.475171,0.588434
2.485847,0.578946
2.496615,0.569269
2.507476,0.564851
2.518431,0.56881
2.52948,0.576271
2.540627,0.582506
2.55187,0.585097
2.563213,0.59038
2.574656,0.591124
2.586201,0.595092
2.597849,0.593374
2.609601,0.593374
2.621459,0.592516
2.633424,0.582574
2.645498,0.56707
2.657682,0.543545
2.669978,0.516287
2.682387,0.376657
2.694911,0.166372
2.707552,0.09334638
2.72031,0.1350204
2.733188,0.113403
2.746188,0.104611
2.759311,0.122091
2.772559,0.125337
2.785934,0.117614
2.799437,0.1130111
2.813071,0.108773
2.826837,0.105232
2.840737,0.101118
2.854774,0.09635376
2.868949,0.09321614
2.883265,0.0893081
2.897723,0.08638079
2.912325,0.0829355
2.927075,0.08056628
2.941973,0.07984696
2.957023,0.08145134
2.972226,0.08030085
2.987586,0.08196547
3.003103,0.08579543
3.018782,0.08810196
3.034624,0.09361348
3.050632,0.09315943
3.066809,0.09747421
3.083157,0.09691136
3.099679,0.09979587
3.116378,0.102323
3.133257,0.10624
3.150319,0.112088
3.167566,0.117955
3.185001,0.124592
3.202629,0.131189
3.220451,0.141143
3.238472,0.146459
3.256694,0.154279
3.275122,0.146137
3.293757,0.156348
3.312605,0.160926
3.331669,0.165712
3.350952,0.166721
3.370458,0.172521
3.390191,0.178318
3.410156,0.177138
3.430355,0.177091
3.450794,0.189154
3.471477,0.199216
3.492408,0.2317043
3.513592,0.263795
3.535032,0.293726
3.556735,0.314811
3.578704,0.332811
3.600946,0.347011
3.623463,0.359657
3.646263,0.370928
3.669351,0.380268
3.692731,0.388617
3.716409,0.392004
3.740392,0.374769
3.764685,0.349978
3.789294,0.321803
3.814225,0.3065281
3.839486,0.295332
3.865081,0.290463
3.891019,0.268976
3.917305,0.247882
3.943948,0.230814
3.970954,0.253895
3.99833,0.330867
4.026086,0.403163
4.054228,0.463213
4.082764,0.491055
4.111703,0.50716
4.141054,0.5179892
4.170826,0.528766
4.201026,0.546844
4.231666,0.624656
4.262754,0.597452
4.294301,0.6213796
4.326317,0.600576
4.358811,0.590921
4.391796,0.596187
4.425282,0.6066533
4.459281,0.6160505
4.493805,0.62342
4.528865,0.629353
4.564475,0.633087
4.600648,0.642707
4.637397,0.657454
4.674735,0.672249
4.712678,0.684723
4.75124,0.695919
4.790436,0.706564
4.830283,0.714901
4.870795,0.722165
4.911991,0.728913
4.953888,0.738232
4.996504,0.743472
5.039857,0.746524
5.083967,0.75605
5.128854,0.76217
5.174538,0.76529
5.221041,0.76775
5.268386,0.770175
5.316595,0.772614
5.365692,0.771442
5.415701,0.775619
5.46665,0.779553
5.518564,0.767639
5.57147,0.724121
5.625399,0.8033057
5.680379,0.8129209
5.736443,0.823048
5.793621,0.821017
5.851948,0.832191
5.911459,0.831751
5.97219,0.848721
6.034179,0.85065
6.097466,0.861468
6.162091,0.877874
6.228099,0.878962
6.295533,0.883378
6.36444,0.901857
6.434869,0.90447
6.506872,0.903767
6.580501,0.919635
6.655812,0.9110166
6.732864,0.915539
6.811718,0.9235921
6.892437,0.9309309
6.975089,0.930518
7.059743,0.932607
7.146475,0.944735
7.23536,0.948105
7.326481,0.956765
7.419922,0.956925
7.515774,0.961444
7.614131,0.966175
7.715093,0.969056
7.818764,0.971168
7.925254,0.97438
8.034682,0.976964
8.147169,0.979739
8.262847,0.981982
8.381852,0.983985
8.504331,0.986893
8.630437,0.98883
8.760335,0.989662
8.894198,0.991138
9.03221,0.992258
9.174568,0.993078
9.32148,0.993081
9.473167,0.9934823
9.629868,0.994585
9.791834,0.9951908
9.959336,0.9965119
10.1327,0.99738
10.3121,0.997828
10.498,0.998992
10.69079,0.999737
10.8907,0.999941
11.0983,0.0100012
11.3139,0.999758
11.5381,0.0100047
11.77129,0.0100007
12.0141,0.9997109
12.26716,0.999553
12.5311,0.9999372
12.8066,0.0100006
13.09451,0.999468
13.3956,0.998557
13.7109,0.997727
14.0414,0.997126
14.3882,0.99344
14.7526,0.983106
15.1359,0.957173
15.5396,0.867342
15.9654,0.657077

File: FTIR_CARB_39_9.csv
Database of Origin,University of Winnipeg Spectrophotometer Facility
Sample Description,Carbonates and Oxolates -  D&P Spectra Reflectance spectra
Other Information,"Designs and Prototypes 102F spectra/Relative to infragold 1"" disk/Reflectance only"
Date Added,2018-08-06 21:11:30.497

Data ID,FTIR_CARB_39_9
Sample ID,CRB215
Mineral Name,hydromagnesite
Locality,Atlin/ British Columbia/ Canada
Grain Size,<45 um
Viewing Geometry,i=35/ e=0
Resolution,~3 cm-1
Formula,Mg5(CO3)4(OH)2*4(H2O)
Composition,XRD shows almost all hydromagnesite/ with a bit of magnesite.

Wavelength
2.001142,0.599332
2.008155,0.600298
2.015217,0.60276
2.022328,0.607547
2.029488,0.6117517
2.036698,0.6158842
2.043959,0.618852
2.051271,0.623541
2.058635,0.62434
2.066051,0.627441
2.073519,0.628366
2.081041,0.630185
2.088617,0.630936
2.096247,0.630242
2.103932,0.634861
2.111673,0.640279
2.119471,0.640948
2.127325,0.64164
2.135237,0.64282
2.143207,0.644948
2.151235,0.644269
2.159324,0.6450836
2.167472,0.645274
2.175682,0.643686
2.183952,0.6437729
2.192285,0.644006
2.200682,0.639321
2.209141,0.641665
2.217665,0.639489
2.226254,0.638445
2.23491,0.635255
2.243631,0.627502
2.252421,0.614459
2.261278,0.610758
2.270204,0.605492
2.279201,0.599741
2.288268,0.600565
2.297406,0.598318
2.306617,0.589328
2.315901,0.573213
2.325259,0.567028
2.334692,0.556564
2.344201,0.548794
2.353787,0.543718
2.363451,0.542878
2.373194,0.543549
2.383016,0.541128
2.392919,0.53817
2.402903,0.533572
2.412971,0.524235
2.423122,0.514203
2.433358,0.514039
2.443679,0.517455
2.454088,0.522979
2.464585,0.520572
2.475171,0.511749
2.485847,0.500704
2.496615,0.497111
2.507476,0.492483
2.518431,0.483715
2.52948,0.481094
2.540627,0.490128
2.55187,0.496371
2.563213,0.501655
2.574656,0.502738
2.586201,0.502362
2.597849,0.501109
2.609601,0.5006891
2.621459,0.496418
2.633424,0.486647
2.645498,0.480135
2.657682,0.468622
2.669978,0.4676
2.682387,0.442145
2.694911,0.428018
2.707552,0.392405
2.72031,0.370886
2.733188,0.271183
2.746188,0.106946
2.759311,0.22102
2.772559,0.1831167
2.785934,0.146738
2.799437,0.118401
2.813071,0.09107498
2.826837,0.05534086
2.840737,0.02757372
2.854774,0.0281105
2.868949,0.03176661
2.883265,0.02509025
2.897723,0.02234769
2.912325,0.02429178
2.927075,0.02777661
2.941973,0.03124117
2.957023,0.03749426
2.972226,0.04110635
2.987586,0.04797502
3.003103,0.05370241
3.018782,0.05510176
3.034624,0.06078178
3.050632,0.05821921
3.066809,0.06190185
3.083157,0.05878664
3.099679,0.0597264
3.116378,0.05712861
3.133257,0.05533206
3.150319,0.05536005
3.167566,0.05590937
3.185001,0.05548447
3.202629,0.05588907
3.220451,0.05827114
3.238472,0.05535971
3.256694,0.05875928
3.275122,0.05393813
3.293757,0.05483893
3.312605,0.05344064
3.331669,0.05752496
3.350952,0.05473073
3.370458,0.05370084
3.390191,0.05430362
3.410156,0.05712605
3.430355,0.05901695
3.450794,0.06484174
3.471477,0.07023323
3.492408,0.08019417
3.513592,0.08329103
3.535032,0.09460794
3.556735,0.09865816
3.578704,0.105594
3.600946,0.113303
3.623463,0.119334
3.646263,0.126359
3.669351,0.132884
3.692731,0.140816
3.716409,0.148073
3.740392,0.153536
3.764685,0.156788
3.789294,0.1608
3.814225,0.167936
3.839486,0.180692
3.865081,0.182951
3.891019,0.191126
3.917305,0.201524
3.943948,0.209023
3.970954,0.239612
3.99833,0.263576
4.026086,0.278394
4.054228,0.292419
4.082764,0.305971
4.111703,0.320378
4.141054,0.335067
4.170826,0.35184
4.201026,0.380736
4.231666,0.459698
4.262754,0.452429
4.294301,0.4798127
4.326317,0.476476
4.358811,0.474948
4.391796,0.491431
4.425282,0.512599
4.459281,0.530966
4.493805,0.546261
4.528865,0.562353
4.564475,0.577166
4.600648,0.592624
4.637397,0.608332
4.674735,0.6251577
4.712678,0.641204
4.75124,0.657286
4.790436,0.672401
4.830283,0.685269
4.870795,0.698478
4.911991,0.710512
4.953888,0.723712
4.996504,0.73284
5.039857,0.743835
5.083967,0.758716
5.128854,0.767198
5.174538,0.776726
5.221041,0.788947
5.268386,0.799119
5.316595,0.808077
5.365692,0.816618
5.415701,0.838118
5.46665,0.850922
5.518564,0.844541
5.57147,0.775544
5.625399,0.881933
5.680379,0.890146
5.736443,0.8976
5.793621,0.899008
5.851948,0.909733
5.911459,0.913593
5.97219,0.929158
6.034179,0.935913
6.097466,0.945172
6.162091,0.956936
6.228099,0.959661
6.295533,0.964087
6.36444,0.977313
6.434869,0.981935
6.506872,0.985265
6.580501,0.996478
6.655812,0.995512
6.732864,0.999301
6.811718,0.0100543
6.892437,0.0101125
6.975089,0.0101371
7.059743,0.010157
7.146475,0.0102197
7.23536,0.0102368
7.326481,0.0102731
7.419922,0.0102794
7.515774,0.0103059
7.614131,0.0103353
7.715093,0.0103591
7.818764,0.0103795
7.925254,0.0104072
8.034682,0.0104414
8.147169,0.0104766
8.262847,0.0105038
8.381852,0.0105304
8.504331,0.0105672
8.630437,0.0105963
8.760335,0.0106155
8.894198,0.0106532
9.03221,0.0106639
9.174568,0.0106709
9.32148,0.0106716
9.473167,0.0106812
9.629868,0.0106792
9.791834,0.0106881
9.959336,0.0106963
10.1327,0.010691
10.3121,0.0106865
10.498,0.0106873
10.69079,0.0106903
10.8907,0.010692
11.0983,0.0107031
11.3139,0.0106963
11.5381,0.01068577
11.77129,0.0106637
12.0141,0.0106425
12.26716,0.010643
12.5311,0.0106402
12.8066,0.0106364
13.09451,0.0106211
13.3956,0.0106016
13.7109,0.010585
14.0414,0.0105664
14.3882,0.0105023
14.7526,0.010387
15.1359,0.0101587
15.5396,0.940832
15.9654,0.7383172

File: FTIR_CARB_39_10.csv
Database of Origin,University of Winnipeg Spectrophotometer Facility
Sample Description,Carbonates and Oxolates -  D&P Spectra Reflectance spectra
Other Information,in air reference no window
Date Added,2018-08-06 21:11:30.5754

Data ID,FTIR_CARB_39_10
Sample ID,CRB215
Mineral Name,Hydromagnesite
Locality,Atlin/ British Columbia/ Canada
Grain Size,<45 um
Viewing Geometry,i=35/ e=0
Resolution,~3 cm-1
Formula,Mg5(CO3)4(OH)2*4(H2O)
Composition,XRD shows almost all hydromagnesite/ with a bit of magnesite.

Wavelength
2.001142,0.308856
2.008155,0.312234
2.015217,0.314457
2.022328,0.316994
2.029488,0.32004
2.036698,0.32355
2.043959,0.326969
2.051271,0.328741
2.058635,0.331275
2.066051,0.333463
2.073519,0.334323
2.081041,0.3371296
2.088617,0.339032
2.096247,0.340439
2.103932,0.34462
2.111673,0.34881
2.119471,0.351808
2.127325,0.3517917
2.135237,0.353831
2.143207,0.355748
2.151235,0.356142
2.159324,0.35671
2.167472,0.357189
2.175682,0.356869
2.183952,0.356432
2.192285,0.357208
2.200682,0.355435
2.209141,0.357139
2.217665,0.357363
2.226254,0.357588
2.23491,0.355976
2.243631,0.351608
2.252421,0.345048
2.261278,0.344638
2.270204,0.341905
2.279201,0.339906
2.288268,0.340869
2.297406,0.34037
2.306617,0.335432
2.315901,0.326514
2.325259,0.32245
2.334692,0.317887
2.344201,0.314597
2.353787,0.311843
2.363451,0.311372
2.373194,0.313226
2.383016,0.312329
2.392919,0.311003
2.402903,0.308645
2.412971,0.30364
2.423122,0.299002
2.433358,0.298906
2.443679,0.301411
2.454088,0.304958
2.464585,0.303699
2.475171,0.298488
2.485847,0.292737
2.496615,0.291231
2.507476,0.289191
2.518431,0.283663
2.52948,0.282994
2.540627,0.288317
2.55187,0.29251
2.563213,0.297313
2.574656,0.29793
2.586201,0.297674
2.597849,0.2977297
2.609601,0.297193
2.621459,0.29357
2.633424,0.290073
2.645498,0.285591
2.657682,0.2797996
2.669978,0.279869
2.682387,0.262058
2.694911,0.24994
2.707552,0.221177
2.72031,0.200334
2.733188,0.148619
2.746188,0.06743551
2.759311,0.120868
2.772559,0.09955238
2.785934,0.08023299
2.799437,0.06579493
2.813071,0.05072564
2.826837,0.03322925
2.840737,0.01865811
2.854774,0.01970897
2.868949,0.02102137
2.883265,0.01827118
2.897723,0.01682956
2.912325,0.01737807
2.927075,0.01867773
2.941973,0.02075743
2.957023,0.02358026
2.972226,0.02595424
2.987586,0.02855382
3.003103,0.03160431
3.018782,0.03199575
3.034624,0.03557328
3.050632,0.03363813
3.066809,0.03559656
3.083157,0.03385242
3.099679,0.03494762
3.116378,0.03289132
3.133257,0.03220982
3.150319,0.03225307
3.167566,0.03190968
3.185001,0.03292135
3.202629,0.03232293
3.220451,0.03509565
3.238472,0.03261783
3.256694,0.03579225
3.275122,0.03208323
3.293757,0.03324622
3.312605,0.03177176
3.331669,0.03468612
3.350952,0.03292566
3.370458,0.03248469
3.390191,0.03147585
3.410156,0.03395147
3.430355,0.03466758
3.450794,0.03731304
3.471477,0.04009333
3.492408,0.04561619
3.513592,0.04710096
3.535032,0.05379253
3.556735,0.05476973
3.578704,0.05864667
3.600946,0.06299272
3.623463,0.06572633
3.646263,0.06933006
3.669351,0.07265243
3.692731,0.07605722
3.716409,0.07912104
3.740392,0.08135589
3.764685,0.08123703
3.789294,0.08247265
3.814225,0.08601289
3.839486,0.09203667
3.865081,0.09258254
3.891019,0.09615667
3.917305,0.101413
3.943948,0.104245
3.970954,0.122538
3.99833,0.136348
4.026086,0.144044
4.054228,0.150773
4.082764,0.156679
4.111703,0.162553
4.141054,0.169138
4.170826,0.176578
4.201026,0.191293
4.231666,0.246132
4.262754,0.234603
4.294301,0.2523026
4.326317,0.2418532
4.358811,0.237394
4.391796,0.244859
4.425282,0.256906
4.459281,0.268122
4.493805,0.278839
4.528865,0.290836
4.564475,0.3016477
4.600648,0.3129261
4.637397,0.324614
4.674735,0.3368727
4.712678,0.3494111
4.75124,0.362177
4.790436,0.375122
4.830283,0.386744
4.870795,0.397713
4.911991,0.408692
4.953888,0.42134
4.996504,0.427912
5.039857,0.438607
5.083967,0.453793
5.128854,0.4597698
5.174538,0.470274
5.221041,0.486357
5.268386,0.493715
5.316595,0.500868
5.365692,0.512691
5.415701,0.5447428
5.46665,0.560104
5.518564,0.536659
5.57147,0.515539
5.625399,0.602188
5.680379,0.605841
5.736443,0.62328
5.793621,0.6109
5.851948,0.638255
5.911459,0.644227
5.97219,0.678921
6.034179,0.6866307
6.097466,0.690816
6.162091,0.702393
6.228099,0.696239
6.295533,0.702774
6.36444,0.737248
6.434869,0.751635
6.506872,0.772142
6.580501,0.798536
6.655812,0.774614
6.732864,0.774378
6.811718,0.785329
6.892437,0.7889581
6.975089,0.798343
7.059743,0.807139
7.146475,0.825918
7.23536,0.820713
7.326481,0.839294
7.419922,0.837568
7.515774,0.844796
7.614131,0.853494
7.715093,0.858125
7.818764,0.863539
7.925254,0.871131
8.034682,0.875194
8.147169,0.880114
8.262847,0.884442
8.381852,0.889123
8.504331,0.892428
8.630437,0.8958859
8.760335,0.900211
8.894198,0.903199
9.03221,0.906813
9.174568,0.908842
9.32148,0.909229
9.473167,0.91118
9.629868,0.913539
9.791834,0.9158516
9.959336,0.918478
10.1327,0.921841
10.3121,0.925065
10.498,0.927122
10.69079,0.929297
10.8907,0.930872
11.0983,0.932005
11.3139,0.933077
11.5381,0.934886
11.77129,0.938748
12.0141,0.94138
12.26716,0.942059
12.5311,0.943799
12.8066,0.945693
13.09451,0.948448
13.3956,0.949226
13.7109,0.950555
14.0414,0.952729
14.3882,0.954932
14.7526,0.9512083
15.1359,0.938982
15.5396,0.88963
15.9654,0.720423

File: FTIR_CLAY_01.csv
Database of Origin,University of Winnipeg Spectrophotometer Facility
Sample Description,See Master Clays in HOSERLab database
Date Added,2016-12-11 20:56:55.086

Data ID,FTIR_CLAY_01
Sample ID,BEI101
Mineral Name,Beidellite
Grain Size,<45 m
Viewing Geometry,35/0
Resolution,11-72 nm
Material Class,Phyllosilicate

Wavelength
2001.142,0.379537
2008.155,0.385746
2015.217,0.3909764
2022.328,0.396428
2029.488,0.400546
2036.698,0.405892
2043.959,0.409534
2051.271,0.412258
2058.635,0.415898
2066.051,0.4185943
2073.519,0.420541
2081.041,0.421955
2088.617,0.423872
2096.247,0.424968
2103.932,0.427645
2111.673,0.4300347
2119.471,0.432765
2127.325,0.433061
2135.237,0.433109
2143.207,0.431065
2151.235,0.426233
2159.324,0.418032
2167.472,0.411713
2175.682,0.403954
2183.952,0.394993
2192.285,0.386428
2200.682,0.377924
2209.141,0.371789
2217.665,0.385352
2226.254,0.3909091
2234.91,0.394607
2243.631,0.3979637
2252.421,0.401537
2261.278,0.404802
2270.204,0.406032
2279.201,0.40399
2288.268,0.400658
2297.406,0.396432
2306.617,0.392015
2315.901,0.384853
2325.259,0.37693
2334.692,0.36924
2344.201,0.362839
2353.787,0.357036
2363.451,0.352091
2373.194,0.345959
2383.016,0.340437
2392.919,0.336877
2402.903,0.332795
2412.971,0.325614
2423.122,0.318004
2433.358,0.3090445
2443.679,0.301877
2454.088,0.29686
2464.585,0.291353
2475.171,0.286285
2485.847,0.280361
2496.615,0.276004
2507.476,0.272516
2518.431,0.270216
2529.48,0.268823
2540.627,0.268386
2551.87,0.269971
2563.213,0.273612
2574.656,0.269966
2586.201,0.268642
2597.849,0.263554
2609.601,0.25958
2621.459,0.255077
2633.424,0.246881
2645.498,0.234754
2657.682,0.221199
2669.978,0.215114
2682.387,0.173316
2694.911,0.122398
2707.552,0.08747208
2720.31,0.09513581
2733.188,0.05253893
2746.188,0.03217721
2759.311,0.02739746
2772.559,0.02683794
2785.934,0.02588606
2799.437,0.02456904
2813.071,0.02391534
2826.837,0.02362116
2840.737,0.02244598
2854.774,0.02226748
2868.949,0.02081382
2883.265,0.01993297
2897.723,0.01930584
2912.325,0.01871738
2927.075,0.01885472
2941.973,0.01890441
2957.023,0.01921075
2972.226,0.01914585
2987.586,0.01921587
3003.103,0.01971547
3018.782,0.02019705
3034.624,0.02196124
3050.632,0.02122759
3066.809,0.02274893
3083.157,0.02274724
3099.679,0.02407977
3116.378,0.02441966
3133.257,0.02559617
3150.319,0.02765512
3167.566,0.03028146
3185.001,0.03458795
3202.629,0.03787449
3220.451,0.04478636
3238.472,0.04776507
3256.694,0.05641085
3275.122,0.05991779
3293.757,0.06790107
3312.605,0.07420143
3331.669,0.08464721
3350.952,0.09189482
3370.458,0.09970839
3390.191,0.108648
3410.156,0.119511
3430.355,0.130213
3450.794,0.143083
3471.477,0.154574
3492.408,0.167037
3513.592,0.1766632
3535.032,0.191959
3556.735,0.2026425
3578.704,0.214862
3600.946,0.225956
3623.463,0.235884
3646.263,0.245611
3669.351,0.254923
3692.731,0.264656
3716.409,0.274332
3740.392,0.282639
3764.685,0.290886
3789.294,0.297891
3814.225,0.304149
3839.486,0.309026
3865.081,0.313105
3891.019,0.317054
3917.305,0.319962
3943.948,0.3217971
3970.954,0.323592
3998.33,0.324638
4026.086,0.325059
4054.228,0.325708
4082.764,0.326659
4111.703,0.329258
4141.054,0.332653
4170.826,0.336644
4201.026,0.351299
4231.666,0.438568
4262.754,0.401981
4294.301,0.424932
4326.317,0.3962741
4358.811,0.382381
4391.796,0.38701
4425.282,0.39578
4459.281,0.403402
4493.805,0.410554
4528.865,0.4179794
4564.475,0.425541
4600.648,0.433801
4637.397,0.4427996
4674.735,0.451717
4712.678,0.462679
4751.24,0.473281
4790.436,0.485442
4830.283,0.49363
4870.795,0.5031062
4911.991,0.510942
4953.888,0.521412
4996.504,0.52528
5039.857,0.533242
5083.967,0.546465
5128.854,0.551094
5174.538,0.559779
5221.041,0.573325
5268.386,0.5749309
5316.595,0.57969
5365.692,0.591755
5415.701,0.624711
5466.65,0.654972
5518.564,0.705138
5571.47,0.593682
5625.399,0.494753
5680.379,0.552496
5736.443,0.579363
5793.621,0.582274
5851.948,0.606359
5911.459,0.614151
5972.19,0.642531
6034.179,0.649414
6097.466,0.653659
6162.091,0.6644483
6228.099,0.66637
6295.533,0.675412
6364.44,0.705334
6434.869,0.71806
6506.872,0.735417
6580.501,0.759131
6655.812,0.740633
6732.864,0.738679
6811.718,0.748406
6892.437,0.7505093
6975.089,0.756843
7059.743,0.7622928
7146.475,0.77883
7235.36,0.7735
7326.481,0.789141
7419.922,0.785747
7515.774,0.792058
7614.131,0.800112
7715.093,0.804095
7818.764,0.808112
7925.254,0.814901
8034.682,0.820379
8147.169,0.8256601
8262.847,0.828342
8381.852,0.831469
8504.331,0.833954
8630.437,0.836485
8760.335,0.8395
8894.198,0.842538
9032.21,0.844521
9174.568,0.845869
9321.48,0.847877
9473.167,0.850995
9629.868,0.853034
9791.834,0.856315
9959.336,0.859286
10132.662,0.861601
10312.121,0.864322
10498.045,0.866624
10690.79,0.867968
10890.738,0.867128
11098.301,0.865454
11313.921,0.865927
11538.079,0.869383
11771.29,0.870831
12014.114,0.87213
12267.16,0.871224
12531.086,0.872954
12806.608,0.873058
13094.51,0.873184
13395.644,0.87301
13710.943,0.87369
14041.433,0.870893
14388.237,0.860695
14752.594,0.835112
15135.871,0.763416
15539.583,0.570634
15965.407,0.35514

File: FTIR_CLAY_02.csv
Database of Origin,University of Winnipeg Spectrophotometer Facility
Sample Description,See Master Clays in HOSERLab database
Date Added,2016-12-11 20:56:55.107

Data ID,FTIR_CLAY_02
Sample ID,BER102
Mineral Name,Berthierine
Grain Size,<45 m
Viewing Geometry,35/0
Resolution,11-72 nm
Material Class,Phyllosilicate

Wavelength
2001.142,0.405726
2008.155,0.407538
2015.217,0.409594
2022.328,0.411914
2029.488,0.413881
2036.698,0.416552
2043.959,0.4180115
2051.271,0.419579
2058.635,0.421281
2066.051,0.422849
2073.519,0.4237471
2081.041,0.426047
2088.617,0.427627
2096.247,0.42828
2103.932,0.430302
2111.673,0.431586
2119.471,0.432946
2127.325,0.432633
2135.237,0.433222
2143.207,0.433837
2151.235,0.434294
2159.324,0.432919
2167.472,0.433574
2175.682,0.433013
2183.952,0.432183
2192.285,0.431008
2200.682,0.4294653
2209.141,0.427667
2217.665,0.425398
2226.254,0.422894
2234.91,0.4187702
2243.631,0.413872
2252.421,0.407687
2261.278,0.403735
2270.204,0.399578
2279.201,0.395708
2288.268,0.392478
2297.406,0.390114
2306.617,0.388125
2315.901,0.386787
2325.259,0.384328
2334.692,0.380693
2344.201,0.378264
2353.787,0.375554
2363.451,0.375261
2373.194,0.375343
2383.016,0.376307
2392.919,0.376389
2402.903,0.3769151
2412.971,0.375437
2423.122,0.373992
2433.358,0.371843
2443.679,0.369217
2454.088,0.366097
2464.585,0.36186
2475.171,0.357661
2485.847,0.353684
2496.615,0.350473
2507.476,0.347917
2518.431,0.3463739
2529.48,0.345248
2540.627,0.344815
2551.87,0.346341
2563.213,0.351375
2574.656,0.347376
2586.201,0.34641
2597.849,0.342061
2609.601,0.338665
2621.459,0.335639
2633.424,0.330305
2645.498,0.32084
2657.682,0.31102
2669.978,0.3117054
2682.387,0.280996
2694.911,0.250976
2707.552,0.20849
2720.31,0.185701
2733.188,0.106052
2746.188,0.05467697
2759.311,0.03661938
2772.559,0.03048485
2785.934,0.02788302
2799.437,0.02509012
2813.071,0.02428634
2826.837,0.02454948
2840.737,0.02445555
2854.774,0.02356939
2868.949,0.02354336
2883.265,0.0222886
2897.723,0.02179296
2912.325,0.02096246
2927.075,0.02074275
2941.973,0.02101509
2957.023,0.02185809
2972.226,0.02163742
2987.586,0.02176301
3003.103,0.02352012
3018.782,0.02370937
3034.624,0.02705105
3050.632,0.02570084
3066.809,0.02845335
3083.157,0.02818062
3099.679,0.03004495
3116.378,0.03052031
3133.257,0.03184314
3150.319,0.03363762
3167.566,0.03564928
3185.001,0.03988602
3202.629,0.04185729
3220.451,0.04817156
3238.472,0.04983695
3256.694,0.05754883
3275.122,0.05950458
3293.757,0.06540205
3312.605,0.06885795
3331.669,0.07613974
3350.952,0.07820315
3370.458,0.07998926
3390.191,0.0832174
3410.156,0.0871675
3430.355,0.09248906
3450.794,0.101934
3471.477,0.106965
3492.408,0.11323
3513.592,0.118692
3535.032,0.132328
3556.735,0.138085
3578.704,0.145792
3600.946,0.153514
3623.463,0.159906
3646.263,0.166426
3669.351,0.173392
3692.731,0.180537
3716.409,0.188088
3740.392,0.1959312
3764.685,0.203262
3789.294,0.209425
3814.225,0.215236
3839.486,0.220216
3865.081,0.2259217
3891.019,0.231363
3917.305,0.2368503
3943.948,0.240063
3970.954,0.2415512
3998.33,0.248127
4026.086,0.260392
4054.228,0.272556
4082.764,0.28409
4111.703,0.293694
4141.054,0.303364
4170.826,0.31377
4201.026,0.333972
4231.666,0.4250729
4262.754,0.39355
4294.301,0.4219875
4326.317,0.398313
4358.811,0.389458
4391.796,0.398109
4425.282,0.411036
4459.281,0.42237
4493.805,0.432135
4528.865,0.441764
4564.475,0.451869
4600.648,0.461982
4637.397,0.472363
4674.735,0.482886
4712.678,0.494997
4751.24,0.506183
4790.436,0.518716
4830.283,0.526816
4870.795,0.536569
4911.991,0.5464878
4953.888,0.5580343
4996.504,0.564043
5039.857,0.572875
5083.967,0.587351
5128.854,0.592623
5174.538,0.601188
5221.041,0.614541
5268.386,0.619103
5316.595,0.626006
5365.692,0.638026
5415.701,0.665749
5466.65,0.693758
5518.564,0.742267
5571.47,0.619645
5625.399,0.5287933
5680.379,0.585934
5736.443,0.615226
5793.621,0.619148
5851.948,0.643164
5911.459,0.651402
5972.19,0.6774764
6034.179,0.684046
6097.466,0.688889
6162.091,0.699317
6228.099,0.699967
6295.533,0.707174
6364.44,0.734179
6434.869,0.7467146
6506.872,0.763771
6580.501,0.786141
6655.812,0.769632
6732.864,0.767747
6811.718,0.776745
6892.437,0.780189
6975.089,0.787111
7059.743,0.793761
7146.475,0.809526
7235.36,0.80647
7326.481,0.821939
7419.922,0.82048
7515.774,0.826828
7614.131,0.834539
7715.093,0.838709
7818.764,0.8425233
7925.254,0.848451
8034.682,0.852626
8147.169,0.856528
8262.847,0.858374
8381.852,0.8608057
8504.331,0.862834
8630.437,0.865359
8760.335,0.867827
8894.198,0.870471
9032.21,0.872335
9174.568,0.872727
9321.48,0.872977
9473.167,0.874707
9629.868,0.878052
9791.834,0.882086
9959.336,0.8854251
10132.662,0.888335
10312.121,0.890896
10498.045,0.893376
10690.79,0.894722
10890.738,0.893637
11098.301,0.891223
11313.921,0.891209
11538.079,0.893183
11771.29,0.893826
12014.114,0.895039
12267.16,0.893832
12531.086,0.894439
12806.608,0.8947656
13094.51,0.894539
13395.644,0.893811
13710.943,0.8933953
14041.433,0.889697
14388.237,0.878233
14752.594,0.84878
15135.871,0.771439
15539.583,0.56226
15965.407,0.335075