Folder: wwu_spec/csv_library

Note: README.md
# Western Washington University Vis-NIR Spectroscopy Database

This repository is currently in the process of being staged for 
open beta release. Patch notes, which may pend environment-specific
changes, will be updated at release. See the programming manual 
and the local installation guide for basic usage instructions. 
Nonlocal environment-specific usage instructions pend a finalized 
release environment.

File: FTIR_CARB_39_1.csv
Database of Origin,University of Winnipeg Spectrophotometer Facility
Sample Description,Carbonates and Oxolates -  D&P Spectra Reflectance spectra
Other Information,"Designs and Prototypes 102F spectra/Relative to infragold 1"" disk/Reflectance only"
Date Added,2018-08-06 21:06:09.454952

Data ID,FTIR_CARB_39_1
Sample ID,CRB105
Mineral Name,huntite
Locality,Currant Creek/ Nevada/ USA
Grain Size,<45 um
Viewing Geometry,i=35/ e=0
Resolution,~3 cm-1
Formula,Mg3Ca(CO3)4
Composition,Huntite plus a few very minor peaks.

Wavelength
2.001142,0.672702
2.008155,0.67348
2.015217,0.675652
2.022328,0.677861
2.029488,0.680644
2.036698,0.681403
2.043959,0.683268
2.051271,0.684187
2.058635,0.685512
2.066051,0.686415
2.073519,0.686181
2.081041,0.686134
2.088617,0.686257
2.096247,0.686959
2.103932,0.689239
2.111673,0.691747
2.119471,0.691621
2.127325,0.691173
2.135237,0.692918
2.143207,0.6941244
2.151235,0.693778
2.159324,0.694998
2.167472,0.694773
2.175682,0.692874
2.183952,0.690874
2.192285,0.691939
2.200682,0.690657
2.209141,0.691086
2.217665,0.686679
2.226254,0.6836904
2.23491,0.67898
2.243631,0.674012
2.252421,0.6698856
2.261278,0.665113
2.270204,0.660598
2.279201,0.654633
2.288268,0.649416
2.297406,0.644693
2.306617,0.6369019
2.315901,0.628491
2.325259,0.633365
2.334692,0.637982
2.344201,0.6481127
2.353787,0.65862
2.363451,0.6589875
2.373194,0.653208
2.383016,0.646903
2.392919,0.643907
2.402903,0.642898
2.412971,0.639569
2.423122,0.6314894
2.433358,0.625975
2.443679,0.620878
2.454088,0.614954
2.464585,0.60967
2.475171,0.605032
2.485847,0.598806
2.496615,0.592913
2.507476,0.591769
2.518431,0.595902
2.52948,0.604881
2.540627,0.613751
2.55187,0.618363
2.563213,0.6226671
2.574656,0.622423
2.586201,0.624262
2.597849,0.621319
2.609601,0.620066
2.621459,0.6189854
2.633424,0.612092
2.645498,0.602094
2.657682,0.586101
2.669978,0.568683
2.682387,0.47368
2.694911,0.285405
2.707552,0.1791
2.72031,0.224983
2.733188,0.207953
2.746188,0.194133
2.759311,0.199116
2.772559,0.193749
2.785934,0.184445
2.799437,0.175519
2.813071,0.167791
2.826837,0.161294
2.840737,0.154003
2.854774,0.146582
2.868949,0.140268
2.883265,0.134933
2.897723,0.1300758
2.912325,0.1256098
2.927075,0.120974
2.941973,0.118785
2.957023,0.118308
2.972226,0.114444
2.987586,0.116045
3.003103,0.118681
3.018782,0.1204454
3.034624,0.125813
3.050632,0.125929
3.066809,0.129829
3.083157,0.129492
3.099679,0.131924
3.116378,0.132624
3.133257,0.136467
3.150319,0.140568
3.167566,0.145344
3.185001,0.148789
3.202629,0.152052
3.220451,0.158678
3.238472,0.161624
3.256694,0.164616
3.275122,0.146599
3.293757,0.152633
3.312605,0.149946
3.331669,0.157476
3.350952,0.158164
3.370458,0.1546779
3.390191,0.154892
3.410156,0.146965
3.430355,0.147396
3.450794,0.161319
3.471477,0.185033
3.492408,0.222576
3.513592,0.256503
3.535032,0.291779
3.556735,0.3146074
3.578704,0.331565
3.600946,0.345901
3.623463,0.3569489
3.646263,0.3646373
3.669351,0.356029
3.692731,0.338048
3.716409,0.343369
3.740392,0.322238
3.764685,0.290217
3.789294,0.25615
3.814225,0.249
3.839486,0.245044
3.865081,0.220789
3.891019,0.214726
3.917305,0.195803
3.943948,0.194109
3.970954,0.248466
3.99833,0.342173
4.026086,0.415121
4.054228,0.4657988
4.082764,0.490999
4.111703,0.506689
4.141054,0.519283
4.170826,0.531731
4.201026,0.551853
4.231666,0.615583
4.262754,0.5991
4.294301,0.617607
4.326317,0.606977
4.358811,0.6004439
4.391796,0.607163
4.425282,0.617946
4.459281,0.62732
4.493805,0.633627
4.528865,0.640659
4.564475,0.643566
4.600648,0.6528327
4.637397,0.672582
4.674735,0.692237
4.712678,0.707567
4.75124,0.72062
4.790436,0.731113
4.830283,0.739308
4.870795,0.74679
4.911991,0.753777
4.953888,0.762173
4.996504,0.765386
5.039857,0.766872
5.083967,0.777447
5.128854,0.781978
5.174538,0.784393
5.221041,0.787176
5.268386,0.789769
5.316595,0.790896
5.365692,0.785729
5.415701,0.796716
5.46665,0.805043
5.518564,0.802183
5.57147,0.764083
5.625399,0.831447
5.680379,0.841701
5.736443,0.850052
5.793621,0.854023
5.851948,0.866203
5.911459,0.868783
5.97219,0.885591
6.034179,0.890336
6.097466,0.901031
6.162091,0.914242
6.228099,0.91428
6.295533,0.9179582
6.36444,0.933086
6.434869,0.936833
6.506872,0.938914
6.580501,0.953056
6.655812,0.948368
6.732864,0.953135
6.811718,0.960816
6.892437,0.967531
6.975089,0.96817
7.059743,0.971437
7.146475,0.980496
7.23536,0.983149
7.326481,0.988771
7.419922,0.989177
7.515774,0.992505
7.614131,0.996399
7.715093,0.998795
7.818764,0.0100069
7.925254,0.0100388
8.034682,0.0100691
8.147169,0.010101
8.262847,0.0101248
8.381852,0.010148
8.504331,0.0101754
8.630437,0.0101995
8.760335,0.0102204
8.894198,0.0102448
9.03221,0.0102727
9.174568,0.0102808
9.32148,0.0102836
9.473167,0.0102875
9.629868,0.010291
9.791834,0.0102995
9.959336,0.0103087
10.1327,0.0103095
10.3121,0.0103087
10.498,0.0103128
10.69079,0.010312
10.8907,0.0103091
11.0983,0.0103191
11.3139,0.0103241
11.5381,0.0103265
11.77129,0.0103034
12.0141,0.0102791
12.26716,0.0102872
12.5311,0.0102915
12.8066,0.0102984
13.09451,0.0102934
13.3956,0.0102911
13.7109,0.0102776
14.0414,0.010264
14.3882,0.0102172
14.7526,0.010107
15.1359,0.9920789
15.5396,0.919703
15.9654,0.730582

File: FTIR_CARB_39_2.csv
Database of Origin,University of Winnipeg Spectrophotometer Facility
Sample Description,Carbonates and Oxolates -  D&P Spectra Reflectance spectra
Other Information,in air reference no window
Date Added,2018-08-06 21:06:09.513860

Data ID,FTIR_CARB_39_2
Sample ID,CRB105
Mineral Name,Huntite
Locality,Currant Creek/ Nevada/ USA
Grain Size,<45 um
Viewing Geometry,i=35/ e=0
Resolution,~3 cm-1
Formula,Mg3Ca(CO3)5
Composition,Huntite plus a few very minor peaks.

Wavelength
2.001142,0.336917
2.008155,0.338465
2.015217,0.339665
2.022328,0.340552
2.029488,0.340518
2.036698,0.340932
2.043959,0.341788
2.051271,0.342101
2.058635,0.342051
2.066051,0.342461
2.073519,0.34181
2.081041,0.341854
2.088617,0.34224
2.096247,0.342541
2.103932,0.3438594
2.111673,0.344831
2.119471,0.345522
2.127325,0.343986
2.135237,0.3452233
2.143207,0.346051
2.151235,0.345251
2.159324,0.345121
2.167472,0.344076
2.175682,0.34272
2.183952,0.342434
2.192285,0.342217
2.200682,0.3408578
2.209141,0.339318
2.217665,0.338773
2.226254,0.3367862
2.23491,0.334694
2.243631,0.331811
2.252421,0.330365
2.261278,0.327727
2.270204,0.325179
2.279201,0.322703
2.288268,0.318982
2.297406,0.316043
2.306617,0.310604
2.315901,0.305005
2.325259,0.306809
2.334692,0.30954
2.344201,0.315637
2.353787,0.320567
2.363451,0.320278
2.373194,0.316668
2.383016,0.313365
2.392919,0.312185
2.402903,0.311304
2.412971,0.309516
2.423122,0.305428
2.433358,0.302206
2.443679,0.29954
2.454088,0.296658
2.464585,0.293503
2.475171,0.290954
2.485847,0.2877702
2.496615,0.283804
2.507476,0.282502
2.518431,0.283924
2.52948,0.28781
2.540627,0.291542
2.55187,0.292656
2.563213,0.297496
2.574656,0.2955747
2.586201,0.2968171
2.597849,0.2956
2.609601,0.293062
2.621459,0.291755
2.633424,0.287974
2.645498,0.27982
2.657682,0.270991
2.669978,0.267834
2.682387,0.209481
2.694911,0.11782
2.707552,0.07188077
2.72031,0.08182589
2.733188,0.07102674
2.746188,0.06264621
2.759311,0.06240267
2.772559,0.06052495
2.785934,0.05721686
2.799437,0.05350534
2.813071,0.0511365
2.826837,0.04837993
2.840737,0.0449064
2.854774,0.04262461
2.868949,0.04104916
2.883265,0.03841968
2.897723,0.03682789
2.912325,0.0351227
2.927075,0.03351013
2.941973,0.0336212
2.957023,0.03497185
2.972226,0.03370031
2.987586,0.03313217
3.003103,0.03574643
3.018782,0.03501976
3.034624,0.03943203
3.050632,0.03737914
3.066809,0.03980548
3.083157,0.03904566
3.099679,0.04093044
3.116378,0.04024351
3.133257,0.04132879
3.150319,0.04334268
3.167566,0.04496577
3.185001,0.04904053
3.202629,0.05009054
3.220451,0.05598793
3.238472,0.05596039
3.256694,0.06131142
3.275122,0.05412286
3.293757,0.05941158
3.312605,0.05946071
3.331669,0.06524898
3.350952,0.06586796
3.370458,0.0655578
3.390191,0.06564324
3.410156,0.06499716
3.430355,0.0648275
3.450794,0.07243704
3.471477,0.08075666
3.492408,0.0968985
3.513592,0.107718
3.535032,0.120577
3.556735,0.126544
3.578704,0.133315
3.600946,0.139487
3.623463,0.1436782
3.646263,0.147342
3.669351,0.147553
3.692731,0.14551
3.716409,0.147266
3.740392,0.139223
3.764685,0.127769
3.789294,0.1169029
3.814225,0.116576
3.839486,0.115669
3.865081,0.110145
3.891019,0.106206
3.917305,0.100421
3.943948,0.101607
3.970954,0.1262907
3.99833,0.168529
4.026086,0.196779
4.054228,0.212675
4.082764,0.2225393
4.111703,0.2297495
4.141054,0.23702
4.170826,0.244136
4.201026,0.259043
4.231666,0.324292
4.262754,0.30386
4.294301,0.323157
4.326317,0.306299
4.358811,0.2981
4.391796,0.303164
4.425282,0.313104
4.459281,0.32268
4.493805,0.331939
4.528865,0.341468
4.564475,0.350053
4.600648,0.360973
4.637397,0.376332
4.674735,0.39154
4.712678,0.405079
4.75124,0.418343
4.790436,0.431847
4.830283,0.44305
4.870795,0.4539
4.911991,0.464468
4.953888,0.47822
4.996504,0.485421
5.039857,0.495061
5.083967,0.510782
5.128854,0.5176375
5.174538,0.527773
5.221041,0.542053
5.268386,0.549427
5.316595,0.557115
5.365692,0.567222
5.415701,0.592937
5.46665,0.608198
5.518564,0.5999942
5.57147,0.519246
5.625399,0.61457
5.680379,0.634832
5.736443,0.656426
5.793621,0.654927
5.851948,0.685443
5.911459,0.696532
5.97219,0.726424
6.034179,0.7338611
6.097466,0.739537
6.162091,0.749868
6.228099,0.745843
6.295533,0.749457
6.36444,0.777443
6.434869,0.788656
6.506872,0.805935
6.580501,0.829096
6.655812,0.810866
6.732864,0.810574
6.811718,0.821657
6.892437,0.827098
6.975089,0.837376
7.059743,0.84406
7.146475,0.860614
7.23536,0.857298
7.326481,0.873509
7.419922,0.872654
7.515774,0.880588
7.614131,0.888794
7.715093,0.89278
7.818764,0.89794
7.925254,0.905229
8.034682,0.910775
8.147169,0.915944
8.262847,0.920609
8.381852,0.925282
8.504331,0.929511
8.630437,0.932695
8.760335,0.935972
8.894198,0.939779
9.03221,0.942875
9.174568,0.943223
9.32148,0.942939
9.473167,0.944767
9.629868,0.947816
9.791834,0.949881
9.959336,0.951536
10.1327,0.954061
10.3121,0.957319
10.498,0.959077
10.69079,0.959882
10.8907,0.960633
11.0983,0.960938
11.3139,0.961618
11.5381,0.962151
11.77129,0.9623039
12.0141,0.96384
12.26716,0.964022
12.5311,0.964262
12.8066,0.964082
13.09451,0.965076
13.3956,0.966079
13.7109,0.966411
14.0414,0.962778
14.3882,0.957985
14.7526,0.943857
15.1359,0.901064
15.5396,0.760216
15.9654,0.5126383

File: FTIR_CARB_39_3.csv
Database of Origin,University of Winnipeg Spectrophotometer Facility
Sample Description,Carbonates and Oxolates -  D&P Spectra Reflectance spectra
Other Information,in air reference no window
Date Added,2018-08-06 21:06:09.539091

Data ID,FTIR_CARB_39_3
Sample ID,CRB106
Mineral Name,Siderite
Locality,Snarum/ Norway
Grain Size,<45 um
Viewing Geometry,i=35/ e=0
Resolution,~3 cm-1
Formula,MgCO3
Composition,XRD shows only magnesite.

Wavelength
2.001142,0.40052
2.008155,0.400474
2.015217,0.402314
2.022328,0.404379
2.029488,0.4060541
2.036698,0.408632
2.043959,0.409872
2.051271,0.411086
2.058635,0.412864
2.066051,0.4142406
2.073519,0.414799
2.081041,0.415959
2.088617,0.417217
2.096247,0.418475
2.103932,0.420876
2.111673,0.424597
2.119471,0.425418
2.127325,0.424773
2.135237,0.426067
2.143207,0.4268924
2.151235,0.426546
2.159324,0.426131
2.167472,0.426013
2.175682,0.425912
2.183952,0.426513
2.192285,0.428116
2.200682,0.427614
2.209141,0.426312
2.217665,0.4264986
2.226254,0.424774
2.23491,0.423857
2.243631,0.4221553
2.252421,0.420586
2.261278,0.418654
2.270204,0.417335
2.279201,0.415429
2.288268,0.412739
2.297406,0.410741
2.306617,0.409215
2.315901,0.408132
2.325259,0.406813
2.334692,0.405848
2.344201,0.404502
2.353787,0.406165
2.363451,0.406063
2.373194,0.406198
2.383016,0.406114
2.392919,0.4058689
2.402903,0.404921
2.412971,0.404005
2.423122,0.402503
2.433358,0.4001166
2.443679,0.397782
2.454088,0.395269
2.464585,0.392379
2.475171,0.389717
2.485847,0.387209
2.496615,0.384849
2.507476,0.382282
2.518431,0.379846
2.52948,0.37892
2.540627,0.378142
2.55187,0.380803
2.563213,0.388595
2.574656,0.390801
2.586201,0.393776
2.597849,0.394003
2.609601,0.392704
2.621459,0.391121
2.633424,0.388227
2.645498,0.38231
2.657682,0.377078
2.669978,0.379588
2.682387,0.358146
2.694911,0.3321817
2.707552,0.292391
2.72031,0.28366
2.733188,0.2429472
2.746188,0.208059
2.759311,0.178547
2.772559,0.152292
2.785934,0.131742
2.799437,0.11508
2.813071,0.101868
2.826837,0.09232591
2.840737,0.08354362
2.854774,0.07799762
2.868949,0.07329854
2.883265,0.06989597
2.897723,0.06701139
2.912325,0.06481056
2.927075,0.06299232
2.941973,0.06275764
2.957023,0.06422389
2.972226,0.0636206
2.987586,0.06379907
3.003103,0.06673448
3.018782,0.06691085
3.034624,0.07191254
3.050632,0.06992413
3.066809,0.0734909
3.083157,0.07303216
3.099679,0.07536013
3.116378,0.07541406
3.133257,0.07716513
3.150319,0.07936068
3.167566,0.08154608
3.185001,0.08580207
3.202629,0.08799262
3.220451,0.09464857
3.238472,0.09472957
3.256694,0.101597
3.275122,0.1003
3.293757,0.104215
3.312605,0.10328
3.331669,0.104856
3.350952,0.101111
3.370458,0.101798
3.390191,0.102414
3.410156,0.106551
3.430355,0.107778
3.450794,0.110104
3.471477,0.110518
3.492408,0.114812
3.513592,0.117674
3.535032,0.130117
3.556735,0.137648
3.578704,0.146909
3.600946,0.155691
3.623463,0.161196
3.646263,0.166797
3.669351,0.172015
3.692731,0.177037
3.716409,0.181932
3.740392,0.186103
3.764685,0.188481
3.789294,0.183159
3.814225,0.169763
3.839486,0.163362
3.865081,0.160685
3.891019,0.159713
3.917305,0.1586921
3.943948,0.155995
3.970954,0.150338
3.99833,0.149527
4.026086,0.167842
4.054228,0.197629
4.082764,0.226099
4.111703,0.247525
4.141054,0.262759
4.170826,0.275101
4.201026,0.2939249
4.231666,0.359681
4.262754,0.344356
4.294301,0.364994
4.326317,0.351816
4.358811,0.345436
4.391796,0.350566
4.425282,0.360223
4.459281,0.369436
4.493805,0.380049
4.528865,0.3908553
4.564475,0.40111
4.600648,0.4097979
4.637397,0.418427
4.674735,0.432834
4.712678,0.450698
4.75124,0.466499
4.790436,0.480849
4.830283,0.492333
4.870795,0.50329
4.911991,0.513783
4.953888,0.526877
4.996504,0.534148
5.039857,0.544629
5.083967,0.558438
5.128854,0.562956
5.174538,0.575345
5.221041,0.5915238
5.268386,0.599636
5.316595,0.607745
5.365692,0.6186015
5.415701,0.639516
5.46665,0.640011
5.518564,0.625662
5.57147,0.5627508
5.625399,0.630031
5.680379,0.654764
5.736443,0.678818
5.793621,0.675589
5.851948,0.702243
5.911459,0.709957
5.97219,0.73685
6.034179,0.74277
6.097466,0.747404
6.162091,0.756944
6.228099,0.753003
6.295533,0.759495
6.36444,0.791307
6.434869,0.8104442
6.506872,0.828201
6.580501,0.849701
6.655812,0.833129
6.732864,0.831391
6.811718,0.840575
6.892437,0.845577
6.975089,0.85427
7.059743,0.861313
7.146475,0.876369
7.23536,0.869963
7.326481,0.883989
7.419922,0.882863
7.515774,0.890147
7.614131,0.898182
7.715093,0.902717
7.818764,0.908582
7.925254,0.916709
8.034682,0.923044
8.147169,0.928626
8.262847,0.932772
8.381852,0.9376307
8.504331,0.942098
8.630437,0.945831
8.760335,0.949719
8.894198,0.953755
9.03221,0.956896
9.174568,0.9574967
9.32148,0.957307
9.473167,0.958957
9.629868,0.96177
9.791834,0.963696
9.959336,0.964902
10.1327,0.966899
10.3121,0.969631
10.498,0.971175
10.69079,0.97179
10.8907,0.972452
11.0983,0.972616
11.3139,0.973278
11.5381,0.973632
11.77129,0.973586
12.0141,0.974579
12.26716,0.974566
12.5311,0.974709
12.8066,0.974779
13.09451,0.975404
13.3956,0.976137
13.7109,0.975588
14.0414,0.971843
14.3882,0.966253
14.7526,0.951032
15.1359,0.907307
15.5396,0.762016
15.9654,0.521062

File: FTIR_CARB_39_4.csv
Database of Origin,University of Winnipeg Spectrophotometer Facility
Sample Description,Carbonates and Oxolates -  D&P Spectra Reflectance spectra
Other Information,in air no window
Date Added,2018-08-06 21:06:09.562808

Data ID,FTIR_CARB_39_4
Sample ID,CRB114
Mineral Name,Magnesite
Locality,Currant Creek/ Nevada/ USA
Grain Size,<45 um
Viewing Geometry,35/0
Resolution,~3 cm-1
Formula,Mg(CO3)
Composition,Magnesite plus other stuff- probably huntite; some broad and low angle peaks.

Wavelength
2.001142,0.352532
2.008155,0.356138
2.015217,0.359898
2.022328,0.3632914
2.029488,0.365526
2.036698,0.368186
2.043959,0.3715292
2.051271,0.374498
2.058635,0.375915
2.066051,0.377773
2.073519,0.377321
2.081041,0.376134
2.088617,0.375025
2.096247,0.376774
2.103932,0.381411
2.111673,0.384805
2.119471,0.383825
2.127325,0.384149
2.135237,0.387386
2.143207,0.390045
2.151235,0.391667
2.159324,0.391636
2.167472,0.391986
2.175682,0.390393
2.183952,0.389348
2.192285,0.389282
2.200682,0.3878842
2.209141,0.386238
2.217665,0.383703
2.226254,0.378387
2.23491,0.3725298
2.243631,0.367541
2.252421,0.362516
2.261278,0.356029
2.270204,0.350015
2.279201,0.345016
2.288268,0.337258
2.297406,0.330298
2.306617,0.316108
2.315901,0.296267
2.325259,0.294586
2.334692,0.298709
2.344201,0.317932
2.353787,0.3354453
2.363451,0.3362407
2.373194,0.326369
2.383016,0.318451
2.392919,0.317925
2.402903,0.316126
2.412971,0.315773
2.423122,0.306997
2.433358,0.303411
2.443679,0.3013546
2.454088,0.2989702
2.464585,0.296473
2.475171,0.289923
2.485847,0.283726
2.496615,0.276274
2.507476,0.274044
2.518431,0.275823
2.52948,0.279206
2.540627,0.281291
2.55187,0.280585
2.563213,0.28313
2.574656,0.2836635
2.586201,0.285469
2.597849,0.283779
2.609601,0.282652
2.621459,0.280092
2.633424,0.2738217
2.645498,0.2614077
2.657682,0.245325
2.669978,0.231689
2.682387,0.151199
2.694911,0.07281182
2.707552,0.04794038
2.72031,0.05411071
2.733188,0.03907038
2.746188,0.03147899
2.759311,0.03269026
2.772559,0.0314331
2.785934,0.02925454
2.799437,0.02627512
2.813071,0.02439324
2.826837,0.02316789
2.840737,0.02109679
2.854774,0.01910523
2.868949,0.01803214
2.883265,0.0165444
2.897723,0.01598714
2.912325,0.01593368
2.927075,0.01552322
2.941973,0.01554483
2.957023,0.01623577
2.972226,0.01569754
2.987586,0.01501757
3.003103,0.01616009
3.018782,0.01595988
3.034624,0.01851825
3.050632,0.01719553
3.066809,0.01923846
3.083157,0.01849415
3.099679,0.01964178
3.116378,0.01945436
3.133257,0.02027722
3.150319,0.02188269
3.167566,0.02398727
3.185001,0.02759234
3.202629,0.02927873
3.220451,0.03517974
3.238472,0.03598359
3.256694,0.04264844
3.275122,0.04245966
3.293757,0.04793585
3.312605,0.05059787
3.331669,0.05683404
3.350952,0.05828435
3.370458,0.0598177
3.390191,0.06282501
3.410156,0.06619558
3.430355,0.07076005
3.450794,0.07901177
3.471477,0.08511815
3.492408,0.0951442
3.513592,0.103977
3.535032,0.118594
3.556735,0.125311
3.578704,0.1334
3.600946,0.141872
3.623463,0.148181
3.646263,0.154036
3.669351,0.158725
3.692731,0.163241
3.716409,0.168833
3.740392,0.170562
3.764685,0.169225
3.789294,0.165765
3.814225,0.165006
3.839486,0.16317
3.865081,0.160627
3.891019,0.159745
3.917305,0.153721
3.943948,0.147731
3.970954,0.162057
3.99833,0.19059
4.026086,0.211664
4.054228,0.226416
4.082764,0.233575
4.111703,0.238073
4.141054,0.242462
4.170826,0.247706
4.201026,0.259307
4.231666,0.314383
4.262754,0.297182
4.294301,0.313181
4.326317,0.298445
4.358811,0.290744
4.391796,0.2949357
4.425282,0.303537
4.459281,0.31208
4.493805,0.320613
4.528865,0.329302
4.564475,0.338005
4.600648,0.347512
4.637397,0.358513
4.674735,0.369859
4.712678,0.381019
4.75124,0.392436
4.790436,0.40568
4.830283,0.417782
4.870795,0.428966
4.911991,0.439971
4.953888,0.454065
4.996504,0.461217
5.039857,0.471063
5.083967,0.487789
5.128854,0.495121
5.174538,0.5053055
5.221041,0.519311
5.268386,0.524589
5.316595,0.531622
5.365692,0.543023
5.415701,0.5694115
5.46665,0.581176
5.518564,0.554761
5.57147,0.481664
5.625399,0.622905
5.680379,0.6283
5.736443,0.640123
5.793621,0.625978
5.851948,0.65164
5.911459,0.6568049
5.97219,0.688969
6.034179,0.69568
6.097466,0.698481
6.162091,0.711721
6.228099,0.706963
6.295533,0.712686
6.36444,0.745757
6.434869,0.757832
6.506872,0.778151
6.580501,0.805259
6.655812,0.780207
6.732864,0.776652
6.811718,0.788379
6.892437,0.79314
6.975089,0.803817
7.059743,0.8106601
7.146475,0.828918
7.23536,0.822104
7.326481,0.840772
7.419922,0.83753
7.515774,0.845237
7.614131,0.854032
7.715093,0.858854
7.818764,0.864181
7.925254,0.871863
8.034682,0.875998
8.147169,0.881003
8.262847,0.884874
8.381852,0.889017
8.504331,0.892535
8.630437,0.895601
8.760335,0.899276
8.894198,0.903294
9.03221,0.906155
9.174568,0.907281
9.32148,0.907713
9.473167,0.910154
9.629868,0.913088
9.791834,0.915706
9.959336,0.917916
10.1327,0.920872
10.3121,0.923989
10.498,0.926381
10.69079,0.928792
10.8907,0.930117
11.0983,0.930799
11.3139,0.931544
11.5381,0.933353
11.77129,0.936298
12.0141,0.938757
12.26716,0.939477
12.5311,0.940902
12.8066,0.941727
13.09451,0.943798
13.3956,0.945012
13.7109,0.946412
14.0414,0.947756
14.3882,0.9492856
14.7526,0.945684
15.1359,0.931471
15.5396,0.881397
15.9654,0.704704