Folder: wwu_spec/csv_library (part 15)

File: FTIR_PYX_17.csv
Database of Origin,University of Winnipeg Spectrophotometer Facility
Sample Description,"HOSERLab master pyroxenes, FTIR data"
Date Added,2016-12-14 03:34:50.0356

Data ID,FTIR_PYX_17
Sample ID,PYX119
Mineral Name,Orthopyroxene
Grain Size,45-90 um
Viewing Geometry,"i=30, e=0"
Material Class,Inosilicate

Wavelength
2000.56,0.175793
2006.983,0.176451
2013.447,0.177314
2019.952,0.179015
2026.499,0.1797549
2033.087,0.180809
2039.718,0.18194
2046.391,0.183648
2053.107,0.184846
2059.867,0.186048
2066.671,0.18697
2073.519,0.188164
2080.412,0.189276
2087.35,0.190845
2094.334,0.192301
2101.364,0.192577
2108.441,0.192503
2115.565,0.192502
2122.736,0.193859
2129.956,0.196725
2137.224,0.196457
2144.541,0.198062
2151.907,0.199175
2159.324,0.20101
2166.791,0.203084
2174.309,0.204735
2181.879,0.205816
2189.501,0.207294
2197.175,0.209029
2204.903,0.210297
2212.685,0.211558
2220.521,0.213083
2228.412,0.213668
2236.359,0.212855
2244.361,0.21276
2252.421,0.213936
2260.537,0.2158616
2268.712,0.216617
2276.945,0.217218
2285.237,0.217781
2293.59,0.218336
2302.002,0.2182997
2310.476,0.2174325
2319.012,0.217051
2327.61,0.219495
2336.272,0.222306
2344.997,0.22531
2353.787,0.228548
2362.643,0.229489
2371.564,0.229094
2380.553,0.230062
2389.609,0.23205
2398.733,0.234526
2407.926,0.237179
2417.19,0.239562
2426.524,0.241287
2435.93,0.24273
2445.408,0.244823
2454.959,0.246684
2464.585,0.248575
2474.285,0.249865
2484.062,0.251206
2493.915,0.252449
2503.845,0.253731
2513.855,0.255477
2523.944,0.257157
2534.113,0.258823
2544.364,0.260098
2554.697,0.260497
2565.113,0.261929
2575.615,0.263276
2586.201,0.26538
2596.874,0.266728
2607.635,0.267436
2618.485,0.2701449
2629.424,0.270693
2640.454,0.267862
2651.576,0.269288
2662.792,0.270397
2674.102,0.263711
2685.507,0.2236064
2697.01,0.1900573
2708.61,0.170123
2720.31,0.162612
2732.111,0.142037
2744.013,0.1358844
2756.019,0.137013
2768.129,0.13772
2780.345,0.140628
2792.669,0.141462
2805.102,0.139041
2817.645,0.140415
2830.299,0.140986
2843.067,0.141234
2855.95,0.141379
2868.949,0.142088
2882.066,0.142975
2895.303,0.142824
2908.661,0.1423143
2922.142,0.142347
2935.747,0.142174
2949.479,0.144712
2963.339,0.1439064
2977.328,0.1477138
2991.45,0.148237
3005.705,0.1500395
3020.096,0.1515
3034.624,0.156416
3049.292,0.157124
3064.101,0.1602301
3079.054,0.161376
3094.153,0.162854
3109.399,0.164736
3124.795,0.167777
3140.344,0.170545
3156.047,0.174194
3171.907,0.177407
3187.926,0.181392
3204.106,0.18502
3220.451,0.190698
3236.963,0.192242
3253.643,0.198338
3270.495,0.2008074
3287.522,0.204295
3304.726,0.2081437
3322.11,0.211561
3339.676,0.214282
3357.429,0.217805
3375.37,0.220382
3393.502,0.223369
3411.83,0.226642
3430.355,0.231124
3449.082,0.23675
3468.013,0.240308
3487.152,0.2436359
3506.502,0.247316
3526.067,0.252444
3545.851,0.256061
3565.856,0.259598
3586.088,0.264426
3606.549,0.26638
3627.244,0.269772
3648.176,0.273989
3669.351,0.277037
3690.771,0.280647
3712.442,0.283693
3734.368,0.287721
3756.553,0.291866
3779.001,0.295177
3801.719,0.298367
3824.71,0.302087
3847.98,0.306443
3871.533,0.310743
3895.375,0.315082
3919.512,0.31893
3943.948,0.323092
3968.689,0.329155
3993.742,0.335128
4019.111,0.34031
4044.804,0.346007
4070.825,0.353307
4097.183,0.361242
4123.882,0.369767
4150.931,0.3794359
4178.335,0.389518
4206.102,0.416403
4234.24,0.480334
4262.754,0.463339
4291.655,0.490032
4320.948,0.48201
4350.642,0.478825
4380.746,0.489826
4411.268,0.50816
4442.217,0.524197
4473.602,0.536071
4505.431,0.546331
4537.716,0.554834
4570.465,0.564538
4603.688,0.573472
4637.397,0.581094
4671.601,0.592427
4706.312,0.605612
4741.541,0.61837
4777.299,0.630631
4813.6,0.641312
4850.455,0.6506766
4887.876,0.659902
4925.878,0.67038
4964.474,0.681469
5003.678,0.690667
5043.504,0.699862
5083.967,0.710674
5125.083,0.717412
5166.868,0.728403
5209.338,0.747674
5252.51,0.753677
5296.401,0.768779
5341.031,0.780642
5386.417,0.784497
5432.579,0.796887
5479.537,0.816987
5527.312,0.848282
5575.925,0.662696
5625.399,0.781594
5675.757,0.801768
5727.022,0.820376
5779.22,0.834931
5832.376,0.848074
5886.517,0.867567
5941.67,0.871573
5997.864,0.871346
6055.129,0.885341
6113.495,0.891639
6172.996,0.894996
6233.663,0.898063
6295.533,0.902655
6358.64,0.913999
6423.023,0.921879
6488.721,0.930924
6555.774,0.933644
6624.224,0.943694
6694.117,0.942968
6765.497,0.949662
6838.413,0.953802
6912.916,0.956063
6989.057,0.9609
7066.891,0.965946
7146.475,0.971313
7227.869,0.97377
7311.135,0.978411
7396.34,0.982675
7483.55,0.987039
7572.838,0.99014
7664.28,0.991599
7757.953,0.994527
7853.942,0.998788
7952.331,0.0100317
8053.214,0.0100725
8156.686,0.010106
8262.847,0.0101393
8371.804,0.0101763
8483.67,0.0102045
8598.562,0.0102249
8716.604,0.0102446
8837.928,0.0102715
8962.673,0.0102976
9090.986,0.0102955
9223.022,0.010268
9358.945,0.0102584
9498.929,0.0102715
9643.16,0.0102923
9791.834,0.0103016
9945.159,0.0102925
10103.357,0.0102971
10266.663,0.0103189
10435.331,0.0103321
10609.627,0.0103346
10789.839,0.0103351
10976.272,0.0103509
11169.256,0.0103555
11369.141,0.0103355
11576.304,0.0103164
11791.15,0.0103152
12014.114,0.0103263
12245.667,0.0103274
12486.313,0.0103143
12736.599,0.0103069
12997.116,0.0103161
13268.505,0.0103323
13551.461,0.0103268
13846.739,0.0102934
14155.163,0.0102847
14477.629,0.0102671
14815.121,0.0102517
15168.712,0.0101612
15539.583,0.95323
15929.033,0.793284
15965.407,0.7656282