Folder: wwu_spec/csv_library (part 8)

File: FTIR_MET_4_2.csv
Database of Origin,University of Winnipeg Spectrophotometer Facility
Sample Description,16. Meteorites. 16.1 Iron meteorites and components 16.1.2. UND samples.  (a) PSF D&P spectra
Other Information,only good to 4.3 um illum. spot larger than viewed spot (8mm)
Date Added,2018-07-23 23:32:11.5377

Data ID,FTIR_MET_4_2
Sample ID,Tucson
Mineral Name,Tucson
Grain Size,Slab
Viewing Geometry,i=30/ e=0
Resolution,6 cm-1
Composition,Cloudy Spot
Material Class,Iron Meteorite

Wavelength
2000.56,0.357883
2006.983,0.355492
2013.447,0.353465
2019.952,0.351496
2026.499,0.34994
2033.087,0.34899
2039.718,0.347323
2046.391,0.346578
2053.107,0.3451287
2059.867,0.344184
2066.671,0.34326
2073.519,0.342047
2080.412,0.341495
2087.35,0.340636
2094.334,0.339615
2101.364,0.338833
2108.441,0.338252
2115.565,0.3373524
2122.736,0.3367034
2129.956,0.336336
2137.224,0.335603
2144.541,0.33431
2151.907,0.333721
2159.324,0.334002
2166.791,0.333486
2174.309,0.332767
2181.879,0.332565
2189.501,0.332422
2197.175,0.332146
2204.903,0.332152
2212.685,0.331821
2220.521,0.330835
2228.412,0.3302939
2236.359,0.329544
2244.361,0.329283
2252.421,0.328317
2260.537,0.327477
2268.712,0.326961
2276.945,0.326682
2285.237,0.325955
2293.59,0.325519
2302.002,0.324848
2310.476,0.324364
2319.012,0.324418
2327.61,0.324232
2336.272,0.323369
2344.997,0.323563
2353.787,0.323011
2362.643,0.3230192
2371.564,0.323007
2380.553,0.322583
2389.609,0.322475
2398.733,0.322374
2407.926,0.3221731
2417.19,0.322487
2426.524,0.322347
2435.93,0.323204
2445.408,0.3237126
2454.959,0.323372
2464.585,0.323184
2474.285,0.32389
2484.062,0.324724
2493.915,0.3248897
2503.845,0.326008
2513.855,0.326723
2523.944,0.327665
2534.113,0.330954
2544.364,0.332495
2554.697,0.3304479
2565.113,0.338797
2575.615,0.341925
2586.201,0.345088
2596.874,0.350466
2607.635,0.347863
2618.485,0.35226
2629.424,0.349959
2640.454,0.334244
2651.576,0.339184
2662.792,0.348437
2674.102,0.354199
2685.507,0.353348
2697.01,0.366629
2708.61,0.407236
2720.31,0.475783
2732.111,0.389474
2744.013,0.373548
2756.019,0.376766
2768.129,0.353635
2780.345,0.343538
2792.669,0.335904
2805.102,0.347538
2817.645,0.335015
2830.299,0.330088
2843.067,0.327323
2855.95,0.327448
2868.949,0.323162
2882.066,0.3200882
2895.303,0.31635
2908.661,0.315023
2922.142,0.313173
2935.747,0.309093
2949.479,0.307545
2963.339,0.304747
2977.328,0.303981
2991.45,0.301841
3005.705,0.300805
3020.096,0.299977
3034.624,0.300123
3049.292,0.2992
3064.101,0.300427
3079.054,0.301556
3094.153,0.302043
3109.399,0.302133
3124.795,0.301919
3140.344,0.30248
3156.047,0.303685
3171.907,0.304948
3187.926,0.305731
3204.106,0.3072547
3220.451,0.308566
3236.963,0.307701
3253.643,0.308791
3270.495,0.308344
3287.522,0.308922
3304.726,0.309781
3322.11,0.310114
3339.676,0.309606
3357.429,0.308184
3375.37,0.305379
3393.502,0.30328
3411.83,0.297622
3430.355,0.291209
3449.082,0.304392
3468.013,0.308832
3487.152,0.309701
3506.502,0.303878
3526.067,0.315557
3545.851,0.320393
3565.856,0.323404
3586.088,0.326202
3606.549,0.327889
3627.244,0.329907
3648.176,0.332462
3669.351,0.334554
3690.771,0.33678
3712.442,0.33972
3734.368,0.342405
3756.553,0.345644
3779.001,0.349062
3801.719,0.352082
3824.71,0.35454
3847.98,0.357541
3871.533,0.36087
3895.375,0.364021
3919.512,0.367158
3943.948,0.370627
3968.689,0.374356
3993.742,0.378591
4019.111,0.3828378
4044.804,0.387426
4070.825,0.392998
4097.183,0.399212
4123.882,0.405981
4150.931,0.413782
4178.335,0.422293
4206.102,0.450371
4234.24,0.548108
4262.754,0.498186
4291.655,0.53085
4320.948,0.505235
4350.642,0.493171
4380.746,0.4977249
4411.268,0.510458
4442.217,0.522036
4473.602,0.531104
4505.431,0.536697
4537.716,0.5448735
4570.465,0.552633
4603.688,0.560951
4637.397,0.569903
4671.601,0.579344
4706.312,0.589406
4741.541,0.599717
4777.299,0.60795
4813.6,0.616717
4850.455,0.6243181
4887.876,0.6313603
4925.878,0.638626
4964.474,0.646383
5003.678,0.653859
5043.504,0.658588
5083.967,0.669188
5125.083,0.6734145
5166.868,0.680357
5209.338,0.69811
5252.51,0.696999
5296.401,0.7109858
5341.031,0.721461
5386.417,0.726452
5432.579,0.775667
5479.537,0.0101752
5527.312,0.0172859
5575.925,0.169585
5625.399,0.325889
5675.757,0.406048
5727.022,0.454903
5779.22,0.488964
5832.376,0.517448
5886.517,0.535738
5941.67,0.556718
5997.864,0.570126
6055.129,0.5750571
6113.495,0.587855
6172.996,0.601407
6233.663,0.622204
6295.533,0.6370906
6358.64,0.651101
6423.023,0.663698
6488.721,0.676987
6555.774,0.695393
6624.224,0.711169
6694.117,0.716683
6765.497,0.726218
6838.413,0.731891
6912.916,0.736573
6989.057,0.747658
7066.891,0.756588
7146.475,0.770514
7227.869,0.778947
7311.135,0.790614
7396.34,0.798651
7483.55,0.8090118
7572.838,0.817205
7664.28,0.823326
7757.953,0.830254
7853.942,0.836514
7952.331,0.843368
8053.214,0.850516
8156.686,0.855812
8262.847,0.859814
8371.804,0.864245
8483.67,0.86762
8598.562,0.870549
8716.604,0.873418
8837.928,0.876558
8962.673,0.879679
9090.986,0.880362
9223.022,0.879632
9358.945,0.881169
9498.929,0.885571
9643.16,0.890592
9791.834,0.894705
9945.159,0.898229
10103.357,0.900712
10266.663,0.903934
10435.331,0.905946
10609.627,0.906411
10789.839,0.905123
10976.272,0.902989
11169.256,0.901229
11369.141,0.900225
11576.304,0.899335
11791.15,0.898841
12014.114,0.899294
12245.667,0.897051
12486.313,0.895348
12736.599,0.894347
12997.116,0.891897
13268.505,0.887899
13551.461,0.882527
13846.739,0.87326
14155.163,0.85572
14477.629,0.82209
14815.121,0.756525
15168.712,0.617684
15539.583,0.372928
15929.033,0.196108
15965.407,0.186129

File: FTIR_MET_4_3.csv
Database of Origin,University of Winnipeg Spectrophotometer Facility
Sample Description,16. Meteorites. 16.1 Iron meteorites and components 16.1.2. UND samples.  (a) PSF D&P spectra
Other Information,only good to 4.3 um illum. spot larger than viewed spot (8mm)
Date Added,2018-07-23 23:32:11.5778

Data ID,FTIR_MET_4_3
Sample ID,Tucson
Mineral Name,Tucson
Grain Size,Slab
Viewing Geometry,i=30/ e=0
Resolution,6 cm-1
Composition,Cloudy Spot Sanded 220 Grit Paper
Material Class,Iron Meteorite

Wavelength
2000.56,0.416726
2006.983,0.415668
2013.447,0.414602
2019.952,0.4135564
2026.499,0.413142
2033.087,0.412333
2039.718,0.411942
2046.391,0.411251
2053.107,0.4112914
2059.867,0.41045
2066.671,0.409807
2073.519,0.408897
2080.412,0.4090081
2087.35,0.408555
2094.334,0.408354
2101.364,0.408079
2108.441,0.4063616
2115.565,0.406012
2122.736,0.405727
2129.956,0.405387
2137.224,0.4046727
2144.541,0.403961
2151.907,0.403431
2159.324,0.40305
2166.791,0.403584
2174.309,0.403394
2181.879,0.403177
2189.501,0.4026237
2197.175,0.402926
2204.903,0.402933
2212.685,0.402888
2220.521,0.401917
2228.412,0.400906
2236.359,0.39991
2244.361,0.399921
2252.421,0.398947
2260.537,0.398541
2268.712,0.397876
2276.945,0.39704
2285.237,0.396574
2293.59,0.396454
2302.002,0.395882
2310.476,0.395183
2319.012,0.394525
2327.61,0.39448
2336.272,0.39448
2344.997,0.393947
2353.787,0.393771
2362.643,0.393114
2371.564,0.393132
2380.553,0.39263
2389.609,0.392112
2398.733,0.392338
2407.926,0.392122
2417.19,0.3915
2426.524,0.39124
2435.93,0.391429
2445.408,0.391754
2454.959,0.391763
2464.585,0.3914413
2474.285,0.391497
2484.062,0.391846
2493.915,0.392366
2503.845,0.392445
2513.855,0.3922478
2523.944,0.393724
2534.113,0.395397
2544.364,0.395808
2554.697,0.394187
2565.113,0.399311
2575.615,0.402716
2586.201,0.405905
2596.874,0.407036
2607.635,0.407752
2618.485,0.412664
2629.424,0.412015
2640.454,0.398582
2651.576,0.403636
2662.792,0.411115
2674.102,0.414947
2685.507,0.415421
2697.01,0.433175
2708.61,0.482272
2720.31,0.530219
2732.111,0.4511726
2744.013,0.430014
2756.019,0.434098
2768.129,0.415429
2780.345,0.406882
2792.669,0.401493
2805.102,0.4091801
2817.645,0.400947
2830.299,0.397779
2843.067,0.396006
2855.95,0.395711
2868.949,0.39325
2882.066,0.392144
2895.303,0.3902821
2908.661,0.389447
2922.142,0.38824
2935.747,0.385752
2949.479,0.385314
2963.339,0.381997
2977.328,0.381925
2991.45,0.3800984
3005.705,0.378781
3020.096,0.377836
3034.624,0.378545
3049.292,0.376934
3064.101,0.376977
3079.054,0.375996
3094.153,0.375533
3109.399,0.374786
3124.795,0.373929
3140.344,0.372338
3156.047,0.37177
3171.907,0.3711322
3187.926,0.370288
3204.106,0.370136
3220.451,0.370607
3236.963,0.368443
3253.643,0.369033
3270.495,0.367686
3287.522,0.366593
3304.726,0.3660203
3322.11,0.3654309
3339.676,0.364243
3357.429,0.363704
3375.37,0.363745
3393.502,0.362291
3411.83,0.362081
3430.355,0.361779
3449.082,0.362808
3468.013,0.363059
3487.152,0.36336
3506.502,0.364068
3526.067,0.365345
3545.851,0.3666
3565.856,0.367828
3586.088,0.369696
3606.549,0.37008
3627.244,0.371565
3648.176,0.373807
3669.351,0.375465
3690.771,0.378058
3712.442,0.380888
3734.368,0.3836
3756.553,0.386737
3779.001,0.389185
3801.719,0.392187
3824.71,0.395119
3847.98,0.3969961
3871.533,0.399473
3895.375,0.402377
3919.512,0.405305
3943.948,0.408897
3968.689,0.41349
3993.742,0.41802
4019.111,0.4223342
4044.804,0.428006
4070.825,0.434586
4097.183,0.442578
4123.882,0.451479
4150.931,0.461941
4178.335,0.472875
4206.102,0.504631
4234.24,0.605723
4262.754,0.5608149
4291.655,0.598446
4320.948,0.576012
4350.642,0.567958
4380.746,0.580088
4411.268,0.599777
4442.217,0.6155053
4473.602,0.624186
4505.431,0.62876
4537.716,0.634837
4570.465,0.642274
4603.688,0.6510282
4637.397,0.661386
4671.601,0.673763
4706.312,0.686881
4741.541,0.698483
4777.299,0.70945
4813.6,0.717078
4850.455,0.72325
4887.876,0.7285817
4925.878,0.733781
4964.474,0.739869
5003.678,0.743748
5043.504,0.74812
5083.967,0.756132
5125.083,0.758533
5166.868,0.76359
5209.338,0.777716
5252.51,0.77506
5296.401,0.785849
5341.031,0.794151
5386.417,0.795883
5432.579,0.830355
5479.537,0.985445
5527.312,0.0210036
5575.925,0.260399
5625.399,0.440497
5675.757,0.519594
5727.022,0.567362
5779.22,0.599552
5832.376,0.625087
5886.517,0.646792
5941.67,0.664717
5997.864,0.676509
6055.129,0.684724
6113.495,0.694235
6172.996,0.703532
6233.663,0.715428
6295.533,0.725702
6358.64,0.739251
6423.023,0.752346
6488.721,0.766138
6555.774,0.777609
6624.224,0.791701
6694.117,0.790871
6765.497,0.798692
6838.413,0.803406
6912.916,0.80524
6989.057,0.813533
7066.891,0.818925
7146.475,0.8308
7227.869,0.833486
7311.135,0.842065
7396.34,0.84607
7483.55,0.851952
7572.838,0.857367
7664.28,0.860403
7757.953,0.864683
7853.942,0.868759
7952.331,0.8726766
8053.214,0.877344
8156.686,0.8811869
8262.847,0.883668
8371.804,0.886601
8483.67,0.889458
8598.562,0.892095
8716.604,0.895059
8837.928,0.897604
8962.673,0.900432
9090.986,0.90209
9223.022,0.902986
9358.945,0.904876
9498.929,0.907433
9643.16,0.909275
9791.834,0.910826
9945.159,0.9115348
10103.357,0.911664
10266.663,0.912026
10435.331,0.912955
10609.627,0.91361
10789.839,0.914293
10976.272,0.915163
11169.256,0.915732
11369.141,0.917849
11576.304,0.9196081
11791.15,0.920702
12014.114,0.921036
12245.667,0.920674
12486.313,0.920747
12736.599,0.919335
12997.116,0.915945
13268.505,0.911868
13551.461,0.907518
13846.739,0.900902
14155.163,0.88868
14477.629,0.863425
14815.121,0.8092495
15168.712,0.687583
15539.583,0.439444
15929.033,0.241816
15965.407,0.230906

File: FTIR_MET_44_1.csv
Database of Origin,University of Winnipeg Spectrophotometer Facility
Sample Description,16.7. Meteorites - Ordinary chondrites 16.7.4. NASA samples D&P 102F FTIR spectra - LAP04840 ordinary chondrite
Other Information,LAP 04 840 Bulk Sample 50W QTH 8mm spot
Date Added,2018-07-23 23:46:34.8559

Data ID,FTIR_MET_44_1
Sample ID,LAP04840
Mineral Name,Ordinary Chondrite
Grain Size,bulk powder
Viewing Geometry,30/0
Resolution,6 cm-1
Composition,Amphibole bearing

Wavelength
2000.56,0.118886
2006.983,0.11831
2013.447,0.117729
2019.952,0.117836
2026.499,0.116882
2033.087,0.1163253
2039.718,0.116081
2046.391,0.114816
2053.107,0.114321
2059.867,0.113984
2066.671,0.113336
2073.519,0.113027
2080.412,0.112877
2087.35,0.112248
2094.334,0.111885
2101.364,0.111631
2108.441,0.111148
2115.565,0.109904
2122.736,0.109552
2129.956,0.109489
2137.224,0.108495
2144.541,0.108277
2151.907,0.108046
2159.324,0.108071
2166.791,0.108266
2174.309,0.107899
2181.879,0.107396
2189.501,0.107402
2197.175,0.1074517
2204.903,0.107337
2212.685,0.107282
2220.521,0.107341
2228.412,0.106853
2236.359,0.106435
2244.361,0.105898
2252.421,0.105936
2260.537,0.105325
2268.712,0.105125
2276.945,0.104375
2285.237,0.104596
2293.59,0.104406
2302.002,0.103859
2310.476,0.103594
2319.012,0.103266
2327.61,0.1040142
2336.272,0.104397
2344.997,0.10422
2353.787,0.104125
2362.643,0.1041004
2371.564,0.103931
2380.553,0.103456
2389.609,0.103423
2398.733,0.103675
2407.926,0.103626
2417.19,0.10353
2426.524,0.103432
2435.93,0.103986
2445.408,0.104096
2454.959,0.104002
2464.585,0.104123
2474.285,0.10429
2484.062,0.104319
2493.915,0.104719
2503.845,0.1051951
2513.855,0.105408
2523.944,0.105891
2534.113,0.10727
2544.364,0.108227
2554.697,0.107303
2565.113,0.111134
2575.615,0.113032
2586.201,0.114732
2596.874,0.116343
2607.635,0.115981
2618.485,0.118761
2629.424,0.118351
2640.454,0.109985
2651.576,0.112671
2662.792,0.117934
2674.102,0.120083
2685.507,0.116817
2697.01,0.120266
2708.61,0.135447
2720.31,0.156497
2732.111,0.110636
2744.013,0.09647523
2756.019,0.09332322
2768.129,0.0830325
2780.345,0.07779431
2792.669,0.07310378
2805.102,0.07226638
2817.645,0.06766121
2830.299,0.06465863
2843.067,0.06229418
2855.95,0.06043538
2868.949,0.0586997
2882.066,0.05701297
2895.303,0.05514763
2908.661,0.05418055
2922.142,0.05317654
2935.747,0.05178091
2949.479,0.05234288
2963.339,0.05014348
2977.328,0.05111149
2991.45,0.04991865
3005.705,0.04948924
3020.096,0.0492423
3034.624,0.05113036
3049.292,0.05009207
3064.101,0.05115941
3079.054,0.0505487
3094.153,0.05040314
3109.399,0.05035332
3124.795,0.05047772
3140.344,0.05088917
3156.047,0.05118804
3171.907,0.0518481
3187.926,0.05270243
3204.106,0.05380444
3220.451,0.05618904
3236.963,0.05564113
3253.643,0.05841555
3270.495,0.05825311
3287.522,0.05899784
3304.726,0.06014356
3322.11,0.0611023
3339.676,0.06141499
3357.429,0.06277583
3375.37,0.06383683
3393.502,0.06512484
3411.83,0.06680087
3430.355,0.06821016
3449.082,0.07028762
3468.013,0.07121652
3487.152,0.07259963
3506.502,0.07385637
3526.067,0.0751447
3545.851,0.07675559
3565.856,0.07816284
3586.088,0.07998852
3606.549,0.08079457
3627.244,0.08235035
3648.176,0.08406645
3669.351,0.085544
3690.771,0.08764293
3712.442,0.09000313
3734.368,0.09252156
3756.553,0.09552507
3779.001,0.09828297
3801.719,0.101457
3824.71,0.1045306
3847.98,0.107959
3871.533,0.111646
3895.375,0.115162
3919.512,0.118669
3943.948,0.122992
3968.689,0.128512
3993.742,0.133579
4019.111,0.138227
4044.804,0.143903
4070.825,0.15084
4097.183,0.159121
4123.882,0.16799
4150.931,0.17791
4178.335,0.189394
4206.102,0.218949
4234.24,0.303427
4262.754,0.271907
4291.655,0.305761
4320.948,0.290918
4350.642,0.284632
4380.746,0.294368
4411.268,0.312629
4442.217,0.329593
4473.602,0.34329
4505.431,0.353903
4537.716,0.365331
4570.465,0.377868
4603.688,0.39032
4637.397,0.404391
4671.601,0.419127
4706.312,0.43481
4741.541,0.4500575
4777.299,0.464005
4813.6,0.477439
4850.455,0.490143
4887.876,0.5018381
4925.878,0.513191
4964.474,0.52501
5003.678,0.535568
5043.504,0.5451307
5083.967,0.560735
5125.083,0.56802
5166.868,0.579055
5209.338,0.602761
5252.51,0.603576
5296.401,0.622624
5341.031,0.637832
5386.417,0.644591
5432.579,0.6953662
5479.537,0.921164
5527.312,0.0158884
5575.925,0.145726
5625.399,0.2934
5675.757,0.370223
5727.022,0.418173
5779.22,0.451495
5832.376,0.480935
5886.517,0.506013
5941.67,0.527419
5997.864,0.541307
6055.129,0.55204
6113.495,0.564426
6172.996,0.579298
6233.663,0.600529
6295.533,0.61711
6358.64,0.634665
6423.023,0.651789
6488.721,0.668189
6555.774,0.685508
6624.224,0.704076
6694.117,0.708075
6765.497,0.719437
6838.413,0.727547
6912.916,0.73371
6989.057,0.74655
7066.891,0.757157
7146.475,0.772904
7227.869,0.7820651
7311.135,0.795563
7396.34,0.805105
7483.55,0.8169339
7572.838,0.826745
7664.28,0.833918
7757.953,0.842448
7853.942,0.850217
7952.331,0.858301
8053.214,0.8675215
8156.686,0.874468
8262.847,0.879729
8371.804,0.885205
8483.67,0.88982
8598.562,0.894455
8716.604,0.899036
8837.928,0.903758
8962.673,0.908001
9090.986,0.9091739
9223.022,0.90804
9358.945,0.908821
9498.929,0.912792
9643.16,0.9181
9791.834,0.922977
9945.159,0.92771
10103.357,0.931076
10266.663,0.934066
10435.331,0.936599
10609.627,0.935965
10789.839,0.93396
10976.272,0.93192
11169.256,0.929323
11369.141,0.928284
11576.304,0.927756
11791.15,0.927371
12014.114,0.926548
12245.667,0.924097
12486.313,0.922561
12736.599,0.92296
12997.116,0.921289
13268.505,0.917111
13551.461,0.910946
13846.739,0.901582
14155.163,0.883588
14477.629,0.848402
14815.121,0.779736
15168.712,0.634675
15539.583,0.378493
15929.033,0.188567
15965.407,0.177762

File: FTIR_MTL_11_1.csv
Database of Origin,University of Winnipeg Spectrophotometer Facility
Sample Description,"METALS AND ""IDES"" - D and P FTIR Spectra (PSF)"
Date Added,2018-07-23 22:27:54.0657

Data ID,FTIR_MTL_11_1
Sample ID,PRT101
Mineral Name,Pyrite
Grain Size,<45 um
Viewing Geometry,i=35/ e=0
Resolution,11-72 nm
Material Class,Sulfide

Wavelength
2001.142,0.135648
2008.155,0.135835
2015.217,0.136514
2022.328,0.136235
2029.488,0.136419
2036.698,0.137397
2043.959,0.1382316
2051.271,0.139026
2058.635,0.139723
2066.051,0.140486
2073.519,0.140889
2081.041,0.141167
2088.617,0.142048
2096.247,0.142803
2103.932,0.141686
2111.673,0.140557
2119.471,0.141588
2127.325,0.142492
2135.237,0.142532
2143.207,0.143339
2151.235,0.1441119
2159.324,0.145642
2167.472,0.146745
2175.682,0.14789
2183.952,0.148904
2192.285,0.149383
2200.682,0.149928
2209.141,0.15071
2217.665,0.151966
2226.254,0.151897
2234.91,0.1533946
2243.631,0.154045
2252.421,0.15536
2261.278,0.155837
2270.204,0.15639
2279.201,0.15721
2288.268,0.158066
2297.406,0.158955
2306.617,0.1603188
2315.901,0.1610589
2325.259,0.161909
2334.692,0.162777
2344.201,0.1634274
2353.787,0.164213
2363.451,0.164608
2373.194,0.165628
2383.016,0.166166
2392.919,0.16721
2402.903,0.167364
2412.971,0.168079
2423.122,0.168908
2433.358,0.16989
2443.679,0.170798
2454.088,0.171904
2464.585,0.172345
2475.171,0.173503
2485.847,0.174319
2496.615,0.175548
2507.476,0.17624
2518.431,0.177359
2529.48,0.178634
2540.627,0.180492
2551.87,0.183112
2563.213,0.18916
2574.656,0.1873832
2586.201,0.188985
2597.849,0.1875
2609.601,0.187774
2621.459,0.188962
2633.424,0.190852
2645.498,0.189349
2657.682,0.190144
2669.978,0.204627
2682.387,0.191552
2694.911,0.198567
2707.552,0.187695
2720.31,0.180434
2733.188,0.152951
2746.188,0.138152
2759.311,0.130262
2772.559,0.130374
2785.934,0.131398
2799.437,0.128331
2813.071,0.123469
2826.837,0.120043
2840.737,0.1163332
2854.774,0.113142
2868.949,0.109247
2883.265,0.1057785
2897.723,0.1005457
2912.325,0.09613949
2927.075,0.09274336
2941.973,0.09165311
2957.023,0.09182822
2972.226,0.09090768
2987.586,0.09085452
3003.103,0.09415561
3018.782,0.09329356
3034.624,0.09785783
3050.632,0.09585791
3066.809,0.09927905
3083.157,0.09884416
3099.679,0.101872
3116.378,0.102647
3133.257,0.104951
3150.319,0.107834
3167.566,0.110623
3185.001,0.114292
3202.629,0.1158283
3220.451,0.121461
3238.472,0.120523
3256.694,0.126567
3275.122,0.124602
3293.757,0.129152
3312.605,0.130241
3331.669,0.134991
3350.952,0.13483
3370.458,0.136446
3390.191,0.137134
3410.156,0.139905
3430.355,0.1401109
3450.794,0.148124
3471.477,0.150756
3492.408,0.155999
3513.592,0.155348
3535.032,0.164367
3556.735,0.1650635
3578.704,0.167894
3600.946,0.171428
3623.463,0.173261
3646.263,0.175939
3669.351,0.178366
3692.731,0.181074
3716.409,0.183685
3740.392,0.1868017
3764.685,0.189266
3789.294,0.192311
3814.225,0.195936
3839.486,0.199692
3865.081,0.203466
3891.019,0.207522
3917.305,0.211243
3943.948,0.215716
3970.954,0.221815
3998.33,0.22652
4026.086,0.230489
4054.228,0.235984
4082.764,0.241854
4111.703,0.249185
4141.054,0.256439
4170.826,0.2645689
4201.026,0.280945
4231.666,0.34872
4262.754,0.331348
4294.301,0.35138
4326.317,0.33594
4358.811,0.32985
4391.796,0.337115
4425.282,0.3479484
4459.281,0.359159
4493.805,0.370312
4528.865,0.381511
4564.475,0.393685
4600.648,0.4048253
4637.397,0.417165
4674.735,0.430168
4712.678,0.442609
4751.24,0.455552
4790.436,0.468737
4830.283,0.480645
4870.795,0.492575
4911.991,0.503811
4953.888,0.517497
4996.504,0.526387
5039.857,0.538283
5083.967,0.553996
5128.854,0.561868
5174.538,0.573406
5221.041,0.5901
5268.386,0.599091
5316.595,0.609087
5365.692,0.623972
5415.701,0.652864
5466.65,0.672099
5518.564,0.6796558
5571.47,0.62953
5625.399,0.633059
5680.379,0.660283
5736.443,0.682379
5793.621,0.682541
5851.948,0.7083588
5911.459,0.718397
5972.19,0.743565
6034.179,0.751969
6097.466,0.758002
6162.091,0.76661
6228.099,0.765927
6295.533,0.773826
6364.44,0.801096
6434.869,0.812717
6506.872,0.828924
6580.501,0.849669
6655.812,0.834637
6732.864,0.835498
6811.718,0.845808
6892.437,0.851317
6975.089,0.859776
7059.743,0.866399
7146.475,0.881111
7235.36,0.877278
7326.481,0.891629
7419.922,0.890701
7515.774,0.897318
7614.131,0.904784
7715.093,0.909103
7818.764,0.914267
7925.254,0.921054
8034.682,0.926149
8147.169,0.930977
8262.847,0.935102
8381.852,0.939758
8504.331,0.944254
8630.437,0.948457
8760.335,0.952666
8894.198,0.957058
9032.21,0.960254
9174.568,0.961112
9321.48,0.961865
9473.167,0.963584
9629.868,0.965928
9791.834,0.967768
9959.336,0.970235
10132.662,0.972933
10312.121,0.974996
10498.045,0.976516
10690.79,0.97775
10890.738,0.978809
11098.301,0.979209
11313.921,0.979593
11538.079,0.980182
11771.29,0.981304
12014.114,0.981494
12267.16,0.981511
12531.086,0.982078
12806.608,0.982902
13094.51,0.98364
13395.644,0.9834794
13710.943,0.98317
14041.433,0.980967
14388.237,0.976673
14752.594,0.962893
15135.871,0.921828
15539.583,0.778942
15965.407,0.528989