Folder: wwu_spec/csv_library (part 13)

File: FTIR_PYX_09.csv
Database of Origin,University of Winnipeg Spectrophotometer Facility
Sample Description,"HOSERLab master pyroxenes, FTIR data"
Date Added,2016-12-14 03:34:49.7704

Data ID,FTIR_PYX_09
Sample ID,PYX108
Mineral Name,Orthopyroxene
Grain Size,<45 um
Viewing Geometry,"i=30, e=0"
Material Class,Inosilicate

Wavelength
2000.56,0.470521
2006.983,0.471297
2013.447,0.473151
2019.952,0.4752615
2026.499,0.475928
2033.087,0.477167
2039.718,0.479294
2046.391,0.480308
2053.107,0.482115
2059.867,0.48377
2066.671,0.485088
2073.519,0.486776
2080.412,0.487871
2087.35,0.4898365
2094.334,0.491129
2101.364,0.4929
2108.441,0.494147
2115.565,0.495341
2122.736,0.496554
2129.956,0.497414
2137.224,0.4985936
2144.541,0.500548
2151.907,0.500895
2159.324,0.502145
2166.791,0.503408
2174.309,0.504495
2181.879,0.505048
2189.501,0.507018
2197.175,0.508107
2204.903,0.509692
2212.685,0.510227
2220.521,0.511243
2228.412,0.510766
2236.359,0.510148
2244.361,0.510223
2252.421,0.510792
2260.537,0.5101483
2268.712,0.507649
2276.945,0.5064756
2285.237,0.500381
2293.59,0.499452
2302.002,0.497175
2310.476,0.487503
2319.012,0.497237
2327.61,0.505469
2336.272,0.509441
2344.997,0.511495
2353.787,0.511551
2362.643,0.512506
2371.564,0.509868
2380.553,0.507818
2389.609,0.507879
2398.733,0.512643
2407.926,0.515998
2417.19,0.5167278
2426.524,0.516454
2435.93,0.517119
2445.408,0.51771
2454.959,0.518626
2464.585,0.518393
2474.285,0.520106
2484.062,0.521421
2493.915,0.5212209
2503.845,0.523028
2513.855,0.524052
2523.944,0.525311
2534.113,0.526373
2544.364,0.527875
2554.697,0.528562
2565.113,0.529523
2575.615,0.530834
2586.201,0.531877
2596.874,0.532337
2607.635,0.533695
2618.485,0.536249
2629.424,0.537763
2640.454,0.537294
2651.576,0.538249
2662.792,0.537527
2674.102,0.529653
2685.507,0.500974
2697.01,0.442384
2708.61,0.356347
2720.31,0.274837
2732.111,0.303983
2744.013,0.317909
2756.019,0.310459
2768.129,0.302847
2780.345,0.29792
2792.669,0.29297
2805.102,0.288309
2817.645,0.287899
2830.299,0.28778
2843.067,0.28415
2855.95,0.283664
2868.949,0.28182
2882.066,0.2784
2895.303,0.2743783
2908.661,0.271908
2922.142,0.270505
2935.747,0.270109
2949.479,0.272449
2963.339,0.272125
2977.328,0.276221
2991.45,0.278039
3005.705,0.281137
3020.096,0.28281
3034.624,0.2884689
3049.292,0.289345
3064.101,0.293258
3079.054,0.295652
3094.153,0.298817
3109.399,0.3014971
3124.795,0.306079
3140.344,0.3117968
3156.047,0.318123
3171.907,0.324502
3187.926,0.330355
3204.106,0.33672
3220.451,0.344712
3236.963,0.348943
3253.643,0.356135
3270.495,0.360865
3287.522,0.366502
3304.726,0.371017
3322.11,0.376763
3339.676,0.381365
3357.429,0.3814714
3375.37,0.377658
3393.502,0.382884
3411.83,0.379882
3430.355,0.390816
3449.082,0.405409
3468.013,0.412133
3487.152,0.413221
3506.502,0.416554
3526.067,0.432426
3545.851,0.440552
3565.856,0.446714
3586.088,0.451695
3606.549,0.454782
3627.244,0.458781
3648.176,0.463583
3669.351,0.466688
3690.771,0.470606
3712.442,0.474142
3734.368,0.477512
3756.553,0.481562
3779.001,0.484688
3801.719,0.487583
3824.71,0.491201
3847.98,0.494485
3871.533,0.498245
3895.375,0.5021001
3919.512,0.504354
3943.948,0.508174
3968.689,0.511739
3993.742,0.516044
4019.111,0.518459
4044.804,0.5213215
4070.825,0.524973
4097.183,0.529709
4123.882,0.535227
4150.931,0.5414195
4178.335,0.545991
4206.102,0.5635347
4234.24,0.610268
4262.754,0.5957115
4291.655,0.614278
4320.948,0.607341
4350.642,0.603093
4380.746,0.6103999
4411.268,0.622424
4442.217,0.633426
4473.602,0.642073
4505.431,0.649179
4537.716,0.653854
4570.465,0.657812
4603.688,0.66236
4637.397,0.664057
4671.601,0.6708954
4706.312,0.679723
4741.541,0.686848
4777.299,0.694048
4813.6,0.701126
4850.455,0.7091192
4887.876,0.718787
4925.878,0.729232
4964.474,0.738762
5003.678,0.7443521
5043.504,0.748884
5083.967,0.754399
5125.083,0.757784
5166.868,0.768198
5209.338,0.78776
5252.51,0.794154
5296.401,0.807438
5341.031,0.817001
5386.417,0.820316
5432.579,0.83163
5479.537,0.855713
5527.312,0.924635
5575.925,0.654292
5625.399,0.771679
5675.757,0.8027373
5727.022,0.820153
5779.22,0.836897
5832.376,0.849426
5886.517,0.865294
5941.67,0.8686802
5997.864,0.868459
6055.129,0.880368
6113.495,0.885742
6172.996,0.891142
6233.663,0.897053
6295.533,0.902941
6358.64,0.915463
6423.023,0.923189
6488.721,0.93031
6555.774,0.933382
6624.224,0.941738
6694.117,0.941086
6765.497,0.946318
6838.413,0.9496268
6912.916,0.950501
6989.057,0.955627
7066.891,0.96027
7146.475,0.965336
7227.869,0.968089
7311.135,0.972791
7396.34,0.976963
7483.55,0.981445
7572.838,0.984256
7664.28,0.985772
7757.953,0.988735
7853.942,0.993159
7952.331,0.997165
8053.214,0.0100152
8156.686,0.0100461
8262.847,0.010082
8371.804,0.0101209
8483.67,0.0101494
8598.562,0.0101686
8716.604,0.010195
8837.928,0.010229
8962.673,0.010261
9090.986,0.0102623
9223.022,0.0102346
9358.945,0.0102305
9498.929,0.0102489
9643.16,0.0102628
9791.834,0.0102687
9945.159,0.0102706
10103.357,0.0102772
10266.663,0.0103025
10435.331,0.0103161
10609.627,0.0103187
10789.839,0.0103176
10976.272,0.0103251
11169.256,0.0103314
11369.141,0.0103134
11576.304,0.0102902
11791.15,0.0102813
12014.114,0.0102854
12245.667,0.010282
12486.313,0.010266
12736.599,0.0102635
12997.116,0.0102824
13268.505,0.0103019
13551.461,0.0103042
13846.739,0.0102725
14155.163,0.0102602
14477.629,0.0102364
14815.121,0.0102112
15168.712,0.010112
15539.583,0.963095
15929.033,0.816244
15965.407,0.795066

File: FTIR_PYX_10.csv
Database of Origin,University of Winnipeg Spectrophotometer Facility
Sample Description,"HOSERLab master pyroxenes, FTIR data"
Date Added,2016-12-14 03:34:49.8014

Data ID,FTIR_PYX_10
Sample ID,PYX108
Mineral Name,Orthopyroxene
Grain Size,45-90 um
Viewing Geometry,"i=30, e=0"
Material Class,Inosilicate

Wavelength
2000.56,0.350123
2006.983,0.352447
2013.447,0.355238
2019.952,0.356943
2026.499,0.359467
2033.087,0.361997
2039.718,0.36477
2046.391,0.367374
2053.107,0.36972
2059.867,0.3727684
2066.671,0.375686
2073.519,0.378071
2080.412,0.3805446
2087.35,0.383248
2094.334,0.386114
2101.364,0.389233
2108.441,0.390771
2115.565,0.39262
2122.736,0.394905
2129.956,0.39724
2137.224,0.4000386
2144.541,0.403174
2151.907,0.405085
2159.324,0.4069987
2166.791,0.409434
2174.309,0.412044
2181.879,0.413969
2189.501,0.416467
2197.175,0.417952
2204.903,0.419432
2212.685,0.421666
2220.521,0.422439
2228.412,0.422429
2236.359,0.421998
2244.361,0.4225992
2252.421,0.423118
2260.537,0.42282
2268.712,0.420278
2276.945,0.417811
2285.237,0.409384
2293.59,0.408135
2302.002,0.404434
2310.476,0.391265
2319.012,0.405913
2327.61,0.419247
2336.272,0.425718
2344.997,0.428919
2353.787,0.429326
2362.643,0.430579
2371.564,0.427039
2380.553,0.422657
2389.609,0.42308
2398.733,0.431159
2407.926,0.43717
2417.19,0.437933
2426.524,0.438113
2435.93,0.43865
2445.408,0.440169
2454.959,0.44121
2464.585,0.4415548
2474.285,0.444898
2484.062,0.44818
2493.915,0.449306
2503.845,0.451125
2513.855,0.452641
2523.944,0.454793
2534.113,0.457323
2544.364,0.459326
2554.697,0.4604257
2565.113,0.461634
2575.615,0.463812
2586.201,0.466459
2596.874,0.4672472
2607.635,0.469165
2618.485,0.472242
2629.424,0.474258
2640.454,0.473363
2651.576,0.474578
2662.792,0.473789
2674.102,0.462746
2685.507,0.419399
2697.01,0.364425
2708.61,0.298951
2720.31,0.237625
2732.111,0.2443188
2744.013,0.257309
2756.019,0.254
2768.129,0.248172
2780.345,0.244779
2792.669,0.24231
2805.102,0.238232
2817.645,0.24024
2830.299,0.242684
2843.067,0.23715
2855.95,0.241328
2868.949,0.2419512
2882.066,0.239399
2895.303,0.236049
2908.661,0.232717
2922.142,0.231222
2935.747,0.231061
2949.479,0.2349111
2963.339,0.2365919
2977.328,0.241991
2991.45,0.2449328
3005.705,0.247806
3020.096,0.250388
3034.624,0.255729
3049.292,0.257314
3064.101,0.260586
3079.054,0.26262
3094.153,0.26524
3109.399,0.267891
3124.795,0.271769
3140.344,0.275701
3156.047,0.280425
3171.907,0.286045
3187.926,0.291621
3204.106,0.297327
3220.451,0.30446
3236.963,0.308461
3253.643,0.3157462
3270.495,0.319746
3287.522,0.323982
3304.726,0.326923
3322.11,0.331963
3339.676,0.337604
3357.429,0.339626
3375.37,0.338737
3393.502,0.344128
3411.83,0.342574
3430.355,0.3517081
3449.082,0.364155
3468.013,0.37026
3487.152,0.371885
3506.502,0.374996
3526.067,0.389971
3545.851,0.397844
3565.856,0.403096
3586.088,0.408093
3606.549,0.411419
3627.244,0.415332
3648.176,0.419318
3669.351,0.422344
3690.771,0.425427
3712.442,0.4290989
3734.368,0.432825
3756.553,0.436315
3779.001,0.439167
3801.719,0.441522
3824.71,0.444813
3847.98,0.448361
3871.533,0.450758
3895.375,0.4541554
3919.512,0.456323
3943.948,0.458398
3968.689,0.462581
3993.742,0.466965
4019.111,0.469555
4044.804,0.472043
4070.825,0.476227
4097.183,0.480723
4123.882,0.485725
4150.931,0.491598
4178.335,0.497072
4206.102,0.516675
4234.24,0.563366
4262.754,0.5505716
4291.655,0.56851
4320.948,0.562611
4350.642,0.559178
4380.746,0.566864
4411.268,0.580523
4442.217,0.592371
4473.602,0.601481
4505.431,0.607563
4537.716,0.60988
4570.465,0.610439
4603.688,0.611069
4637.397,0.610174
4671.601,0.616763
4706.312,0.626835
4741.541,0.634055
4777.299,0.641346
4813.6,0.649037
4850.455,0.658211
4887.876,0.669028
4925.878,0.6802988
4964.474,0.691234
5003.678,0.697963
5043.504,0.703519
5083.967,0.710811
5125.083,0.714858
5166.868,0.7268057
5209.338,0.74838
5252.51,0.755528
5296.401,0.770536
5341.031,0.781923
5386.417,0.785351
5432.579,0.797206
5479.537,0.81977
5527.312,0.870391
5575.925,0.640343
5625.399,0.758284
5675.757,0.782123
5727.022,0.801279
5779.22,0.8174744
5832.376,0.832581
5886.517,0.852304
5941.67,0.854493
5997.864,0.852817
6055.129,0.867311
6113.495,0.872821
6172.996,0.876702
6233.663,0.881428
6295.533,0.887572
6358.64,0.900792
6423.023,0.910416
6488.721,0.919634
6555.774,0.921352
6624.224,0.931624
6694.117,0.929232
6765.497,0.93525
6838.413,0.938869
6912.916,0.939416
6989.057,0.944865
7066.891,0.94933
7146.475,0.955262
7227.869,0.957567
7311.135,0.962239
7396.34,0.966655
7483.55,0.970831
7572.838,0.973829
7664.28,0.975187
7757.953,0.978182
7853.942,0.982392
7952.331,0.986708
8053.214,0.990727
8156.686,0.99372
8262.847,0.997008
8371.804,0.01000754
8483.67,0.0100343
8598.562,0.0100546
8716.604,0.0100784
8837.928,0.0101119
8962.673,0.0101425
9090.986,0.0101396
9223.022,0.0101165
9358.945,0.0101079
9498.929,0.0101256
9643.16,0.0101425
9791.834,0.0101445
9945.159,0.0101469
10103.357,0.0101546
10266.663,0.0101819
10435.331,0.0101982
10609.627,0.0102022
10789.839,0.010201
10976.272,0.010211
11169.256,0.0102172
11369.141,0.0101973
11576.304,0.0101789
11791.15,0.0101743
12014.114,0.0101863
12245.667,0.0101893
12486.313,0.0101766
12736.599,0.0101704
12997.116,0.0101832
13268.505,0.0102052
13551.461,0.0102046
13846.739,0.0101742
14155.163,0.010165
14477.629,0.0101365
14815.121,0.0101132
15168.712,0.0100438
15539.583,0.959099
15929.033,0.821309
15965.407,0.804684

File: FTIR_PYX_11.csv
Database of Origin,University of Winnipeg Spectrophotometer Facility
Sample Description,"HOSERLab master pyroxenes, FTIR data"
Date Added,2016-12-14 03:34:49.8332

Data ID,FTIR_PYX_11
Sample ID,PYX110
Mineral Name,Orthopyroxene
Grain Size,<45 um
Viewing Geometry,"i=30, e=0"
Material Class,Inosilicate

Wavelength
2000.56,0.454542
2006.983,0.457729
2013.447,0.461825
2019.952,0.465908
2026.499,0.469159
2033.087,0.4728302
2039.718,0.477296
2046.391,0.48136
2053.107,0.485677
2059.867,0.48998
2066.671,0.494404
2073.519,0.499094
2080.412,0.503228
2087.35,0.508217
2094.334,0.512975
2101.364,0.518543
2108.441,0.523537
2115.565,0.528638
2122.736,0.533522
2129.956,0.5382317
2137.224,0.5440088
2144.541,0.5487415
2151.907,0.553339
2159.324,0.557958
2166.791,0.563915
2174.309,0.568148
2181.879,0.572607
2189.501,0.577926
2197.175,0.582536
2204.903,0.587194
2212.685,0.591588
2220.521,0.595517
2228.412,0.597893
2236.359,0.601169
2244.361,0.60437
2252.421,0.607117
2260.537,0.610022
2268.712,0.610537
2276.945,0.611487
2285.237,0.60689
2293.59,0.609796
2302.002,0.609331
2310.476,0.60111
2319.012,0.612924
2327.61,0.62182
2336.272,0.6272122
2344.997,0.630751
2353.787,0.632646
2362.643,0.634788
2371.564,0.634011
2380.553,0.632969
2389.609,0.6329233
2398.733,0.63674
2407.926,0.640783
2417.19,0.642207
2426.524,0.6416062
2435.93,0.642306
2445.408,0.642205
2454.959,0.64242
2464.585,0.642355
2474.285,0.644417
2484.062,0.645768
2493.915,0.644528
2503.845,0.645448
2513.855,0.645477
2523.944,0.646298
2534.113,0.645873
2544.364,0.646034
2554.697,0.646859
2565.113,0.644653
2575.615,0.645254
2586.201,0.64526
2596.874,0.643977
2607.635,0.645448
2618.485,0.646065
2629.424,0.6473857
2640.454,0.648569
2651.576,0.648607
2662.792,0.64552
2674.102,0.638797
2685.507,0.615146
2697.01,0.546877
2708.61,0.448394
2720.31,0.34665
2732.111,0.381184
2744.013,0.396843
2756.019,0.394495
2768.129,0.389721
2780.345,0.3878314
2792.669,0.38735
2805.102,0.385028
2817.645,0.387938
2830.299,0.387385
2843.067,0.384903
2855.95,0.383313
2868.949,0.38241
2882.066,0.381231
2895.303,0.379319
2908.661,0.377621
2922.142,0.376694
2935.747,0.375107
2949.479,0.375751
2963.339,0.375754
2977.328,0.378953
2991.45,0.381128
3005.705,0.384085
3020.096,0.386737
3034.624,0.3919
3049.292,0.393446
3064.101,0.397046
3079.054,0.400037
3094.153,0.40205
3109.399,0.405649
3124.795,0.409927
3140.344,0.414308
3156.047,0.419816
3171.907,0.425299
3187.926,0.4305228
3204.106,0.435853
3220.451,0.442253
3236.963,0.445218
3253.643,0.450783
3270.495,0.452088
3287.522,0.455421
3304.726,0.457878
3322.11,0.461126
3339.676,0.464424
3357.429,0.465308
3375.37,0.464368
3393.502,0.466621
3411.83,0.461872
3430.355,0.467227
3449.082,0.476234
3468.013,0.4802233
3487.152,0.482836
3506.502,0.484259
3526.067,0.494934
3545.851,0.498476
3565.856,0.500019
3586.088,0.501666
3606.549,0.502219
3627.244,0.503903
3648.176,0.504991
3669.351,0.50578
3690.771,0.506199
3712.442,0.50681
3734.368,0.507274
3756.553,0.507549
3779.001,0.50658
3801.719,0.505767
3824.71,0.505909
3847.98,0.50645
3871.533,0.507458
3895.375,0.507099
3919.512,0.506088
3943.948,0.506878
3968.689,0.510987
3993.742,0.5180553
4019.111,0.522043
4044.804,0.525044
4070.825,0.527984
4097.183,0.532038
4123.882,0.536025
4150.931,0.5412262
4178.335,0.546374
4206.102,0.565951
4234.24,0.614389
4262.754,0.598704
4291.655,0.616452
4320.948,0.60757
4350.642,0.601935
4380.746,0.608334
4411.268,0.620346
4442.217,0.630179
4473.602,0.638443
4505.431,0.646198
4537.716,0.650308
4570.465,0.654463
4603.688,0.658109
4637.397,0.658886
4671.601,0.664941
4706.312,0.674605
4741.541,0.6815743
4777.299,0.688072
4813.6,0.693754
4850.455,0.698849
4887.876,0.707022
4925.878,0.717542
4964.474,0.727426
5003.678,0.733539
5043.504,0.73819
5083.967,0.743154
5125.083,0.745868
5166.868,0.755606
5209.338,0.775977
5252.51,0.783797
5296.401,0.798734
5341.031,0.80988
5386.417,0.8121604
5432.579,0.821613
5479.537,0.8383614
5527.312,0.869083
5575.925,0.692456
5625.399,0.8144598
5675.757,0.829721
5727.022,0.843051
5779.22,0.853977
5832.376,0.8678441
5886.517,0.885535
5941.67,0.886281
5997.864,0.882589
6055.129,0.896775
6113.495,0.901301
6172.996,0.902641
6233.663,0.902623
6295.533,0.9061737
6358.64,0.917207
6423.023,0.925119
6488.721,0.932308
6555.774,0.934442
6624.224,0.942789
6694.117,0.941515
6765.497,0.947255
6838.413,0.949817
6912.916,0.951129
6989.057,0.956
7066.891,0.959964
7146.475,0.965621
7227.869,0.967355
7311.135,0.971599
7396.34,0.975469
7483.55,0.979608
7572.838,0.9822642
7664.28,0.983552
7757.953,0.986039
7853.942,0.990501
7952.331,0.994682
8053.214,0.998908
8156.686,0.0100194
8262.847,0.0100538
8371.804,0.0100912
8483.67,0.0101175
8598.562,0.0101377
8716.604,0.0101595
8837.928,0.0101907
8962.673,0.0102185
9090.986,0.0102171
9223.022,0.0101925
9358.945,0.0101853
9498.929,0.0102048
9643.16,0.0102204
9791.834,0.0102269
9945.159,0.0102258
10103.357,0.0102319
10266.663,0.0102573
10435.331,0.0102685
10609.627,0.0102734
10789.839,0.010271
10976.272,0.010282
11169.256,0.0102864
11369.141,0.0102693
11576.304,0.0102481
11791.15,0.010239
12014.114,0.0102442
12245.667,0.0102392
12486.313,0.0102196
12736.599,0.0102126
12997.116,0.0102256
13268.505,0.0102481
13551.461,0.0102532
13846.739,0.0102207
14155.163,0.0102085
14477.629,0.0101847
14815.121,0.010154
15168.712,0.0100611
15539.583,0.956099
15929.033,0.819366
15965.407,0.797544

File: FTIR_PYX_12.csv
Database of Origin,University of Winnipeg Spectrophotometer Facility
Sample Description,"HOSERLab master pyroxenes, FTIR data"
Date Added,2016-12-14 03:34:49.865

Data ID,FTIR_PYX_12
Sample ID,PYX110
Mineral Name,Orthopyroxene
Grain Size,45-90 um
Viewing Geometry,"i=30, e=0"
Material Class,Inosilicate

Wavelength
2000.56,0.219529
2006.983,0.222747
2013.447,0.226315
2019.952,0.23042
2026.499,0.23424
2033.087,0.238544
2039.718,0.243513
2046.391,0.248176
2053.107,0.25258
2059.867,0.2577
2066.671,0.262525
2073.519,0.267736
2080.412,0.27364
2087.35,0.278959
2094.334,0.284903
2101.364,0.291345
2108.441,0.297213
2115.565,0.30271
2122.736,0.310191
2129.956,0.317054
2137.224,0.32415
2144.541,0.332234
2151.907,0.338705
2159.324,0.34601
2166.791,0.354055
2174.309,0.361387
2181.879,0.368511
2189.501,0.376843
2197.175,0.384508
2204.903,0.39159
2212.685,0.399716
2220.521,0.40717
2228.412,0.4137128
2236.359,0.420876
2244.361,0.42752
2252.421,0.434341
2260.537,0.440779
2268.712,0.445853
2276.945,0.450375
2285.237,0.45172
2293.59,0.458131
2302.002,0.461904
2310.476,0.458977
2319.012,0.471016
2327.61,0.481668
2336.272,0.4898385
2344.997,0.496554
2353.787,0.50253
2362.643,0.50804
2371.564,0.510359
2380.553,0.512222
2389.609,0.515112
2398.733,0.521328
2407.926,0.527273
2417.19,0.5303958
2426.524,0.53238
2435.93,0.534231
2445.408,0.536847
2454.959,0.538053
2464.585,0.539119
2474.285,0.542062
2484.062,0.544174
2493.915,0.544491
2503.845,0.545911
2513.855,0.547475
2523.944,0.548126
2534.113,0.549203
2544.364,0.550871
2554.697,0.551596
2565.113,0.550903
2575.615,0.551674
2586.201,0.552189
2596.874,0.551174
2607.635,0.5522086
2618.485,0.553685
2629.424,0.554546
2640.454,0.553573
2651.576,0.552352
2662.792,0.548724
2674.102,0.53984
2685.507,0.511008
2697.01,0.43529
2708.61,0.347974
2720.31,0.28678
2732.111,0.294358
2744.013,0.298326
2756.019,0.296067
2768.129,0.292463
2780.345,0.292167
2792.669,0.292808
2805.102,0.294004
2817.645,0.2965929
2830.299,0.297305
2843.067,0.291028
2855.95,0.291446
2868.949,0.293392
2882.066,0.291129
2895.303,0.288789
2908.661,0.287763
2922.142,0.28562
2935.747,0.283873
2949.479,0.285704
2963.339,0.284287
2977.328,0.286758
2991.45,0.287756
3005.705,0.290635
3020.096,0.292673
3034.624,0.297398
3049.292,0.2976761
3064.101,0.3001854
3079.054,0.301421
3094.153,0.302621
3109.399,0.304191
3124.795,0.306586
3140.344,0.309386
3156.047,0.312346
3171.907,0.315793
3187.926,0.3186433
3204.106,0.321599
3220.451,0.325511
3236.963,0.326183
3253.643,0.330048
3270.495,0.330413
3287.522,0.332338
3304.726,0.33368
3322.11,0.335358
3339.676,0.336876
3357.429,0.336641
3375.37,0.335124
3393.502,0.336369
3411.83,0.332325
3430.355,0.335235
3449.082,0.340781
3468.013,0.342096
3487.152,0.342771
3506.502,0.341669
3526.067,0.347044
3545.851,0.34819
3565.856,0.348534
3586.088,0.349151
3606.549,0.347015
3627.244,0.347423
3648.176,0.34771
3669.351,0.347044
3690.771,0.346978
3712.442,0.346894
3734.368,0.346917
3756.553,0.346962
3779.001,0.34679
3801.719,0.346477
3824.71,0.347195
3847.98,0.348145
3871.533,0.349785
3895.375,0.351175
3919.512,0.351911
3943.948,0.354096
3968.689,0.357711
3993.742,0.36198
4019.111,0.365639
4044.804,0.36967
4070.825,0.37409
4097.183,0.379865
4123.882,0.38697
4150.931,0.395197
4178.335,0.403299
4206.102,0.429489
4234.24,0.49465
4262.754,0.474211
4291.655,0.498396
4320.948,0.488699
4350.642,0.483264
4380.746,0.49238
4411.268,0.508846
4442.217,0.523692
4473.602,0.534974
4505.431,0.5441
4537.716,0.550706
4570.465,0.556613
4603.688,0.56212
4637.397,0.566353
4671.601,0.575041
4706.312,0.587717
4741.541,0.599334
4777.299,0.61018
4813.6,0.619835
4850.455,0.630368
4887.876,0.641548
4925.878,0.654235
4964.474,0.666031
5003.678,0.674479
5043.504,0.682179
5083.967,0.691714
5125.083,0.698364
5166.868,0.710383
5209.338,0.732463
5252.51,0.739548
5296.401,0.756076
5341.031,0.768933
5386.417,0.772595
5432.579,0.787238
5479.537,0.816924
5527.312,0.890817
5575.925,0.558634
5625.399,0.709203
5675.757,0.7457926
5727.022,0.769686
5779.22,0.793062
5832.376,0.814116
5886.517,0.83773
5941.67,0.842147
5997.864,0.840888
6055.129,0.855662
6113.495,0.861189
6172.996,0.866121
6233.663,0.872041
6295.533,0.878994
6358.64,0.892532
6423.023,0.902265
6488.721,0.911447
6555.774,0.913764
6624.224,0.924184
6694.117,0.9215013
6765.497,0.928275
6838.413,0.932099
6912.916,0.932739
6989.057,0.938584
7066.891,0.943525
7146.475,0.949946
7227.869,0.952349
7311.135,0.957352
7396.34,0.961891
7483.55,0.966626
7572.838,0.969916
7664.28,0.971662
7757.953,0.974752
7853.942,0.97927
7952.331,0.9839
8053.214,0.9882608
8156.686,0.9912622
8262.847,0.994863
8371.804,0.998648
8483.67,0.0100128
8598.562,0.0100332
8716.604,0.0100525
8837.928,0.0100845
8962.673,0.0101157
9090.986,0.0101119
9223.022,0.0100891
9358.945,0.0100837
9498.929,0.0101044
9643.16,0.01012499
9791.834,0.0101337
9945.159,0.0101336
10103.357,0.0101426
10266.663,0.0101678
10435.331,0.0101825
10609.627,0.0101902
10789.839,0.0101897
10976.272,0.0102048
11169.256,0.01021012
11369.141,0.0101942
11576.304,0.0101772
11791.15,0.0101799
12014.114,0.0101973
12245.667,0.0101983
12486.313,0.010189
12736.599,0.0101817
12997.116,0.0101939
13268.505,0.0102179
13551.461,0.0102218
13846.739,0.0101919
14155.163,0.0101864
14477.629,0.0101741
14815.121,0.0101722
15168.712,0.0101171
15539.583,0.975018
15929.033,0.848205
15965.407,0.822789