Folder: wwu_spec/csv_library (part 6)

File: FTIR_LNR_3_5.csv
Database of Origin,University of Winnipeg Spectrophotometer Facility
Sample Description,Lunar samples/ analogues and glasses - D and P 102F FTIR spectra (from PSF) NASA Apollo lunar samples
Other Information,diffuse gold puck 100 spectra averaged
Date Added,2018-07-23 21:03:11.4478

Data ID,FTIR_LNR_3_5
Sample ID,apollo 17 ID# 71061 13 5
Grain Size,<1mm?
Viewing Geometry,i=30/ e=0
Resolution,3 cm-1
Composition,regolith sample

Wavelength
2.001142,0.443193
2.008155,0.442624
2.015217,0.442694
2.022328,0.442584
2.029488,0.442515
2.036698,0.443697
2.043959,0.444318
2.051271,0.443937
2.058635,0.444634
2.066051,0.445601
2.073519,0.446392
2.081041,0.447101
2.088617,0.447791
2.096247,0.448404
2.103932,0.448692
2.111673,0.448819
2.119471,0.449564
2.127325,0.451479
2.135237,0.451261
2.143207,0.450941
2.151235,0.452982
2.159324,0.45432
2.167472,0.455009
2.175682,0.455808
2.183952,0.456535
2.192285,0.456938
2.200682,0.458501
2.209141,0.459791
2.217665,0.460291
2.226254,0.460507
2.23491,0.461255
2.243631,0.463446
2.252421,0.463645
2.261278,0.463125
2.270204,0.464271
2.279201,0.464708
2.288268,0.465586
2.297406,0.46576
2.306617,0.468084
2.315901,0.468024
2.325259,0.467287
2.334692,0.469356
2.344201,0.46922
2.353787,0.47008
2.363451,0.470448
2.373194,0.470785
2.383016,0.471448
2.392919,0.472602
2.402903,0.472863
2.412971,0.474077
2.423122,0.474457
2.433358,0.476073
2.443679,0.477375
2.454088,0.477548
2.464585,0.47792
2.475171,0.478921
2.485847,0.479573
2.496615,0.48136
2.507476,0.481495
2.518431,0.483451
2.52948,0.484782
2.540627,0.48534
2.55187,0.490363
2.563213,0.493899
2.574656,0.492218
2.586201,0.492576
2.597849,0.490184
2.609601,0.493115
2.621459,0.49794
2.633424,0.4946
2.645498,0.494675
2.657682,0.493265
2.669978,0.506619
2.682387,0.4919191
2.694911,0.496758
2.707552,0.487959
2.72031,0.495886
2.733188,0.475782
2.746188,0.468986
2.759311,0.461341
2.772559,0.461498
2.785934,0.456341
2.799437,0.452487
2.813071,0.451889
2.826837,0.451341
2.840737,0.449387
2.854774,0.450159
2.868949,0.447677
2.883265,0.44659
2.897723,0.44404
2.912325,0.443481
2.927075,0.442213
2.941973,0.44196
2.957023,0.442029
2.972226,0.442483
2.987586,0.442099
3.003103,0.444244
3.018782,0.445065
3.034624,0.448272
3.050632,0.448566
3.066809,0.450031
3.083157,0.45066
3.099679,0.451887
3.116378,0.451933
3.133257,0.452637
3.150319,0.454676
3.167566,0.45598
3.185001,0.457823
3.202629,0.459746
3.220451,0.462754
3.238472,0.463652
3.256694,0.466778
3.275122,0.466144
3.293757,0.468569
3.312605,0.470136
3.331669,0.473884
3.350952,0.474112
3.370458,0.475717
3.390191,0.478401
3.410156,0.482587
3.430355,0.486286
3.450794,0.485725
3.471477,0.48715
3.492408,0.492325
3.513592,0.494683
3.535032,0.497029
3.556735,0.497647
3.578704,0.500637
3.600946,0.50362
3.623463,0.506532
3.646263,0.509154
3.669351,0.512843
3.692731,0.516023
3.716409,0.519817
3.740392,0.524129
3.764685,0.527144
3.789294,0.531485
3.814225,0.536028
3.839486,0.540266
3.865081,0.543626
3.891019,0.547057
3.917305,0.551448
3.943948,0.556737
3.970954,0.562959
3.99833,0.567594
4.026086,0.572721
4.054228,0.578981
4.082764,0.586359
4.111703,0.594527
4.141054,0.602629
4.170826,0.611259
4.201026,0.62157
4.231666,0.637233
4.262754,0.642123
4.294301,0.653186
4.326317,0.660779
4.358811,0.672106
4.391796,0.682544
4.425282,0.698203
4.459281,0.710403
4.493805,0.720645
4.528865,0.729176
4.564475,0.737603
4.600648,0.746882
4.637397,0.756385
4.674735,0.767497
4.712678,0.782268
4.75124,0.797735
4.790436,0.812547
4.830283,0.824486
4.870795,0.834254
4.911991,0.841039
4.953888,0.84855
4.996504,0.854867
5.039857,0.862207
5.083967,0.870221
5.128854,0.877533
5.174538,0.884291
5.221041,0.893645
5.268386,0.902027
5.316595,0.911036
5.365692,0.919994
5.415701,0.942475
5.46665,0.0106571
5.518564,0.736173
5.57147,0.618271
5.625399,0.714731
5.680379,0.75506
5.736443,0.782612
5.793621,0.803541
5.851948,0.820815
5.911459,0.8408128
5.97219,0.852541
6.034179,0.862963
6.097466,0.867245
6.162091,0.873629
6.228099,0.890563
6.295533,0.904075
6.36444,0.909669
6.434869,0.918741
6.506872,0.931924
6.580501,0.940974
6.655812,0.95403
6.732864,0.961279
6.811718,0.967011
6.892437,0.973847
6.975089,0.983074
7.059743,0.991758
7.146475,0.995739
7.23536,0.0100448
7.326481,0.0101121
7.419922,0.010196
7.515774,0.0102664
7.614131,0.0103367
7.715093,0.0103975
7.818764,0.010467
7.925254,0.0105193
8.034682,0.0106294
8.147169,0.0107119
8.262847,0.010797
8.381852,0.0108548
8.504331,0.0109298
8.630437,0.010984
8.760335,0.0110273
8.894198,0.0110476
9.03221,0.0110762
9.174568,0.0110808
9.32148,0.0111022
9.473167,0.011115
9.629868,0.0111164
9.791834,0.0111283
9.959336,0.0111561
10.1327,0.0111603
10.3121,0.011151
10.498,0.011135
10.69079,0.011118
10.8907,0.0111009
11.0983,0.0110642
11.3139,0.0110165
11.5381,0.0109806
11.77129,0.0109178
12.0141,0.0108688
12.26716,0.0108062
12.5311,0.0107931
12.8066,0.0108135
13.09451,0.0107748
13.3956,0.0107132
13.7109,0.0106264
14.0414,0.0105274
14.3882,0.0103853
14.7526,0.0100691
15.1359,0.92315
15.5396,0.70651
15.9654,0.4100135

File: FTIR_LNR_3_6.csv
Database of Origin,University of Winnipeg Spectrophotometer Facility
Sample Description,Lunar samples/ analogues and glasses - D and P 102F FTIR spectra (from PSF) NASA Apollo lunar samples
Other Information,diffuse gold puck 100 spectra averaged
Date Added,2018-07-23 21:03:11.4873

Data ID,FTIR_LNR_3_6
Sample ID,apollo 17 ID# 71061 14 5
Grain Size,<1mm?
Viewing Geometry,i=30/ e=0
Resolution,3 cm-1
Composition,regolith sample

Wavelength
2.001142,0.232972
2.008155,0.233755
2.015217,0.233719
2.022328,0.233691
2.029488,0.234011
2.036698,0.23499
2.043959,0.235089
2.051271,0.235313
2.058635,0.236591
2.066051,0.23726
2.073519,0.237995
2.081041,0.238613
2.088617,0.239815
2.096247,0.240684
2.103932,0.240836
2.111673,0.240829
2.119471,0.242279
2.127325,0.243291
2.135237,0.243471
2.143207,0.244291
2.151235,0.244421
2.159324,0.246277
2.167472,0.247437
2.175682,0.248313
2.183952,0.249263
2.192285,0.25006
2.200682,0.250816
2.209141,0.251641
2.217665,0.252967
2.226254,0.253138
2.23491,0.253617
2.243631,0.255916
2.252421,0.25549
2.261278,0.257296
2.270204,0.257661
2.279201,0.257637
2.288268,0.259957
2.297406,0.259712
2.306617,0.261345
2.315901,0.262322
2.325259,0.262279
2.334692,0.263881
2.344201,0.264984
2.353787,0.266192
2.363451,0.266852
2.373194,0.26749
2.383016,0.268485
2.392919,0.2692767
2.402903,0.270106
2.412971,0.270902
2.423122,0.272042
2.433358,0.273344
2.443679,0.275411
2.454088,0.275533
2.464585,0.277639
2.475171,0.277726
2.485847,0.278932
2.496615,0.280373
2.507476,0.280959
2.518431,0.282429
2.52948,0.283243
2.540627,0.284764
2.55187,0.288638
2.563213,0.292328
2.574656,0.29169
2.586201,0.292294
2.597849,0.291576
2.609601,0.294402
2.621459,0.29877
2.633424,0.296482
2.645498,0.297457
2.657682,0.297268
2.669978,0.308219
2.682387,0.299007
2.694911,0.303703
2.707552,0.296681
2.72031,0.299948
2.733188,0.285536
2.746188,0.281827
2.759311,0.27872
2.772559,0.278959
2.785934,0.276783
2.799437,0.275789
2.813071,0.275271
2.826837,0.275874
2.840737,0.276263
2.854774,0.276965
2.868949,0.276492
2.883265,0.275726
2.897723,0.27651
2.912325,0.276244
2.927075,0.275415
2.941973,0.276213
2.957023,0.276291
2.972226,0.275985
2.987586,0.276596
3.003103,0.278734
3.018782,0.279393
3.034624,0.282734
3.050632,0.2818761
3.066809,0.284397
3.083157,0.28417
3.099679,0.285723
3.116378,0.285547
3.133257,0.285503
3.150319,0.285679
3.167566,0.287001
3.185001,0.288059
3.202629,0.2895
3.220451,0.29163
3.238472,0.291238
3.256694,0.2943537
3.275122,0.292978
3.293757,0.294458
3.312605,0.294561
3.331669,0.297676
3.350952,0.29769
3.370458,0.29639
3.390191,0.298167
3.410156,0.299855
3.430355,0.302732
3.450794,0.304749
3.471477,0.306022
3.492408,0.310657
3.513592,0.311711
3.535032,0.315682
3.556735,0.316278
3.578704,0.318782
3.600946,0.322428
3.623463,0.324432
3.646263,0.327456
3.669351,0.331596
3.692731,0.335479
3.716409,0.339796
3.740392,0.344319
3.764685,0.350047
3.789294,0.355454
3.814225,0.360956
3.839486,0.366162
3.865081,0.370583
3.891019,0.375698
3.917305,0.381281
3.943948,0.388037
3.970954,0.396453
3.99833,0.40336
4.026086,0.410756
4.054228,0.419064
4.082764,0.428637
4.111703,0.439756
4.141054,0.451369
4.170826,0.464096
4.201026,0.477737
4.231666,0.496937
4.262754,0.507884
4.294301,0.525357
4.326317,0.540185
4.358811,0.557055
4.391796,0.574036
4.425282,0.59363
4.459281,0.61032
4.493805,0.624772
4.528865,0.638257
4.564475,0.651131
4.600648,0.664628
4.637397,0.677852
4.674735,0.692737
4.712678,0.709574
4.75124,0.727803
4.790436,0.744459
4.830283,0.75862
4.870795,0.769192
4.911991,0.777049
4.953888,0.784733
4.996504,0.792014
5.039857,0.800081
5.083967,0.808894
5.128854,0.816697
5.174538,0.823454
5.221041,0.832891
5.268386,0.841282
5.316595,0.850586
5.365692,0.86038
5.415701,0.88514
5.46665,0.0100717
5.518564,0.620872
5.57147,0.564624
5.625399,0.659333
5.680379,0.699268
5.736443,0.726291
5.793621,0.747952
5.851948,0.762962
5.911459,0.781736
5.97219,0.792417
6.034179,0.802228
6.097466,0.806711
6.162091,0.814076
6.228099,0.831551
6.295533,0.844567
6.36444,0.851617
6.434869,0.861248
6.506872,0.873251
6.580501,0.882481
6.655812,0.893975
6.732864,0.902424
6.811718,0.908474
6.892437,0.914651
6.975089,0.923448
7.059743,0.931831
7.146475,0.9372
7.23536,0.946295
7.326481,0.953023
7.419922,0.960566
7.515774,0.967156
7.614131,0.974256
7.715093,0.980508
7.818764,0.986681
7.925254,0.992024
8.034682,0.010013
8.147169,0.0100866
8.262847,0.0101473
8.381852,0.0101858
8.504331,0.0102412
8.630437,0.0102877
8.760335,0.0103271
8.894198,0.0103452
9.03221,0.0103675
9.174568,0.0103611
9.32148,0.0103831
9.473167,0.0104037
9.629868,0.0104193
9.791834,0.0104441
9.959336,0.0104842
10.1327,0.0105085
10.3121,0.0105173
10.498,0.010516
10.69079,0.0105045
10.8907,0.0104879
11.0983,0.0104524
11.3139,0.0104109
11.5381,0.0103937
11.77129,0.0103637
12.0141,0.0103369
12.26716,0.0102826
12.5311,0.0102643
12.8066,0.0102861
13.09451,0.010261
13.3956,0.0102095
13.7109,0.0101362
14.0414,0.010053
14.3882,0.99209
14.7526,0.960889
15.1359,0.877987
15.5396,0.664927
15.9654,0.372725

File: FTIR_LNR_3_7.csv
Database of Origin,University of Winnipeg Spectrophotometer Facility
Sample Description,Lunar samples/ analogues and glasses - D and P 102F FTIR spectra (from PSF) NASA Apollo lunar samples
Other Information,diffuse gold puck 100 spectra averaged
Date Added,2018-07-23 21:03:11.5269

Data ID,FTIR_LNR_3_7
Sample ID,apollo 11 ID# 10084 2009 162
Grain Size,<1mm?
Viewing Geometry,i=30/ e=0
Resolution,3 cm-1
Composition,regolith sample

Wavelength
2.001142,0.242743
2.008155,0.242843
2.015217,0.243143
2.022328,0.243576
2.029488,0.243521
2.036698,0.244002
2.043959,0.244672
2.051271,0.245256
2.058635,0.246387
2.066051,0.247494
2.073519,0.247515
2.081041,0.248163
2.088617,0.249279
2.096247,0.2497272
2.103932,0.250072
2.111673,0.249758
2.119471,0.250576
2.127325,0.252472
2.135237,0.252303
2.143207,0.252497
2.151235,0.25334
2.159324,0.254985
2.167472,0.256086
2.175682,0.257808
2.183952,0.2575826
2.192285,0.258798
2.200682,0.260137
2.209141,0.26074
2.217665,0.262049
2.226254,0.263003
2.23491,0.263035
2.243631,0.265446
2.252421,0.266546
2.261278,0.266326
2.270204,0.267206
2.279201,0.268291
2.288268,0.268995
2.297406,0.269902
2.306617,0.271798
2.315901,0.27232
2.325259,0.272916
2.334692,0.274419
2.344201,0.274786
2.353787,0.276181
2.363451,0.277028
2.373194,0.277705
2.383016,0.278461
2.392919,0.280134
2.402903,0.280892
2.412971,0.282298
2.423122,0.283225
2.433358,0.284749
2.443679,0.286896
2.454088,0.28703
2.464585,0.288874
2.475171,0.289669
2.485847,0.290791
2.496615,0.29321
2.507476,0.294127
2.518431,0.296719
2.52948,0.29743
2.540627,0.29913
2.55187,0.303116
2.563213,0.307147
2.574656,0.306407
2.586201,0.307673
2.597849,0.305945
2.609601,0.309612
2.621459,0.314621
2.633424,0.311728
2.645498,0.312864
2.657682,0.312103
2.669978,0.324865
2.682387,0.313568
2.694911,0.318658
2.707552,0.31093
2.72031,0.313862
2.733188,0.297846
2.746188,0.293774
2.759311,0.290337
2.772559,0.290471
2.785934,0.288881
2.799437,0.287849
2.813071,0.287231
2.826837,0.287763
2.840737,0.288034
2.854774,0.28912
2.868949,0.288679
2.883265,0.287354
2.897723,0.288462
2.912325,0.28894
2.927075,0.28817
2.941973,0.289898
2.957023,0.290848
2.972226,0.289882
2.987586,0.290426
3.003103,0.292327
3.018782,0.2928078
3.034624,0.297183
3.050632,0.296032
3.066809,0.299576
3.083157,0.299364
3.099679,0.300535
3.116378,0.299521
3.133257,0.299999
3.150319,0.301494
3.167566,0.302289
3.185001,0.303518
3.202629,0.30472
3.220451,0.307588
3.238472,0.30696
3.256694,0.31035
3.275122,0.308334
3.293757,0.309624
3.312605,0.310203
3.331669,0.314117
3.350952,0.313394
3.370458,0.313125
3.390191,0.314498
3.410156,0.316056
3.430355,0.319369
3.450794,0.321314
3.471477,0.323215
3.492408,0.328422
3.513592,0.32958
3.535032,0.33515
3.556735,0.335833
3.578704,0.339289
3.600946,0.343339
3.623463,0.346185
3.646263,0.349477
3.669351,0.353947
3.692731,0.358902
3.716409,0.364448
3.740392,0.37014
3.764685,0.375811
3.789294,0.382727
3.814225,0.389671
3.839486,0.396076
3.865081,0.402891
3.891019,0.409573
3.917305,0.417022
3.943948,0.425094
3.970954,0.435343
3.99833,0.443573
4.026086,0.452628
4.054228,0.463065
4.082764,0.474892
4.111703,0.487841
4.141054,0.502194
4.170826,0.517605
4.201026,0.533813
4.231666,0.556446
4.262754,0.570448
4.294301,0.5906
4.326317,0.609019
4.358811,0.629684
4.391796,0.650009
4.425282,0.673313
4.459281,0.694764
4.493805,0.711735
4.528865,0.727043
4.564475,0.74283
4.600648,0.759183
4.637397,0.774412
4.674735,0.792573
4.712678,0.813459
4.75124,0.834781
4.790436,0.853708
4.830283,0.868085
4.870795,0.880843
4.911991,0.890145
4.953888,0.899308
4.996504,0.908205
5.039857,0.917745
5.083967,0.927681
5.128854,0.937103
5.174538,0.945272
5.221041,0.9558027
5.268386,0.965795
5.316595,0.976146
5.365692,0.987411
5.415701,0.0101427
5.46665,0.0114144
5.518564,0.643046
5.57147,0.691078
5.625399,0.792173
5.680379,0.83347
5.736443,0.860147
5.793621,0.880296
5.851948,0.896498
5.911459,0.915508
5.97219,0.9263817
6.034179,0.936198
6.097466,0.939495
6.162091,0.944284
6.228099,0.956671
6.295533,0.965501
6.36444,0.968409
6.434869,0.976389
6.506872,0.989024
6.580501,0.996294
6.655812,0.010113
6.732864,0.0101787
6.811718,0.0102305
6.892437,0.0102954
6.975089,0.0104008
7.059743,0.0104788
7.146475,0.0105069
7.23536,0.0105874
7.326481,0.0106419
7.419922,0.010724
7.515774,0.0107902
7.614131,0.0108531
7.715093,0.0109133
7.818764,0.0109793
7.925254,0.0110263
8.034682,0.0111366
8.147169,0.0112247
8.262847,0.0113049
8.381852,0.0113531
8.504331,0.011419
8.630437,0.0114657
8.760335,0.0114999
8.894198,0.011503
9.03221,0.0115202
9.174568,0.0115145
9.32148,0.0115435
9.473167,0.0115583
9.629868,0.0115506
9.791834,0.0115521
9.959336,0.0115749
10.1327,0.0115724
10.3121,0.01155
10.498,0.0115272
10.69079,0.0115057
10.8907,0.0114829
11.0983,0.0114413
11.3139,0.0113914
11.5381,0.0113552
11.77129,0.011302
12.0141,0.0112431
12.26716,0.0111785
12.5311,0.0111325
12.8066,0.0111487
13.09451,0.0110792
13.3956,0.0110058
13.7109,0.010898
14.0414,0.0107775
14.3882,0.0106075
14.7526,0.0102212
15.1359,0.924685
15.5396,0.687014
15.9654,0.371631

File: FTIR_LNR_3_8.csv
Database of Origin,University of Winnipeg Spectrophotometer Facility
Sample Description,Lunar samples/ analogues and glasses - D and P 102F FTIR spectra (from PSF) NASA Apollo lunar samples
Other Information,diffuse gold puck 100 spectra averaged
Date Added,2018-07-23 21:03:11.5677

Data ID,FTIR_LNR_3_8
Sample ID,apollo 11 ID# 10084 2008 162
Grain Size,<1mm?
Viewing Geometry,i=30/ e=0
Resolution,3 cm-1
Composition,regolith sample

Wavelength
2.001142,0.157536
2.008155,0.157151
2.015217,0.158461
2.022328,0.159083
2.029488,0.158768
2.036698,0.158469
2.043959,0.159393
2.051271,0.159288
2.058635,0.160143
2.066051,0.161256
2.073519,0.161886
2.081041,0.16186
2.088617,0.1622298
2.096247,0.162557
2.103932,0.16256
2.111673,0.162479
2.119471,0.162405
2.127325,0.163957
2.135237,0.164354
2.143207,0.164941
2.151235,0.165345
2.159324,0.166386
2.167472,0.167711
2.175682,0.169014
2.183952,0.169311
2.192285,0.170101
2.200682,0.171526
2.209141,0.1725452
2.217665,0.173377
2.226254,0.173543
2.23491,0.174574
2.243631,0.176088
2.252421,0.175897
2.261278,0.176775
2.270204,0.177521
2.279201,0.177792
2.288268,0.178599
2.297406,0.178954
2.306617,0.180975
2.315901,0.180295
2.325259,0.181494
2.334692,0.182119
2.344201,0.182218
2.353787,0.183623
2.363451,0.183266
2.373194,0.184699
2.383016,0.185228
2.392919,0.185863
2.402903,0.186235
2.412971,0.186765
2.423122,0.187299
2.433358,0.188101
2.443679,0.189794
2.454088,0.189356
2.464585,0.190259
2.475171,0.190995
2.485847,0.19168
2.496615,0.192878
2.507476,0.193866
2.518431,0.194629
2.52948,0.195774
2.540627,0.197069
2.55187,0.200629
2.563213,0.203637
2.574656,0.20378
2.586201,0.204214
2.597849,0.20241
2.609601,0.205389
2.621459,0.209814
2.633424,0.207482
2.645498,0.208126
2.657682,0.20763
2.669978,0.218772
2.682387,0.208614
2.694911,0.21269
2.707552,0.204973
2.72031,0.205413
2.733188,0.189707
2.746188,0.184771
2.759311,0.181907
2.772559,0.18135
2.785934,0.179637
2.799437,0.178437
2.813071,0.177804
2.826837,0.17868
2.840737,0.177801
2.854774,0.179027
2.868949,0.17922
2.883265,0.178365
2.897723,0.179085
2.912325,0.178401
2.927075,0.178054
2.941973,0.179272
2.957023,0.180966
2.972226,0.179523
2.987586,0.180214
3.003103,0.182708
3.018782,0.182856
3.034624,0.186987
3.050632,0.185845
3.066809,0.188483
3.083157,0.188616
3.099679,0.19062
3.116378,0.19008
3.133257,0.190346
3.150319,0.191429
3.167566,0.19248
3.185001,0.19283
3.202629,0.195057
3.220451,0.198346
3.238472,0.197299
3.256694,0.201844
3.275122,0.199064
3.293757,0.200986
3.312605,0.201995
3.331669,0.205724
3.350952,0.20519
3.370458,0.2040987
3.390191,0.205387
3.410156,0.208159
3.430355,0.211256
3.450794,0.214256
3.471477,0.216946
3.492408,0.222619
3.513592,0.223151
3.535032,0.229391
3.556735,0.230039
3.578704,0.233976
3.600946,0.23828
3.623463,0.24105
3.646263,0.244685
3.669351,0.249232
3.692731,0.254651
3.716409,0.260036
3.740392,0.26634
3.764685,0.272362
3.789294,0.279251
3.814225,0.286984
3.839486,0.293678
3.865081,0.300623
3.891019,0.30807
3.917305,0.316493
3.943948,0.3252178
3.970954,0.336532
3.99833,0.346259
4.026086,0.35542
4.054228,0.366907
4.082764,0.38014
4.111703,0.395544
4.141054,0.411859
4.170826,0.428845
4.201026,0.447136
4.231666,0.470795
4.262754,0.487749
4.294301,0.510009
4.326317,0.530505
4.358811,0.553273
4.391796,0.576023
4.425282,0.601862
4.459281,0.624016
4.493805,0.6433378
4.528865,0.660192
4.564475,0.677222
4.600648,0.695128
4.637397,0.713208
4.674735,0.732948
4.712678,0.755676
4.75124,0.778945
4.790436,0.800173
4.830283,0.816812
4.870795,0.829901
4.911991,0.840482
4.953888,0.85064
4.996504,0.859916
5.039857,0.870097
5.083967,0.880468
5.128854,0.889866
5.174538,0.898461
5.221041,0.909308
5.268386,0.919454
5.316595,0.930275
5.365692,0.942324
5.415701,0.972738
5.46665,0.0110885
5.518564,0.687468
5.57147,0.632949
5.625399,0.733559
5.680379,0.778293
5.736443,0.807957
5.793621,0.828754
5.851948,0.846028
5.911459,0.86437
5.97219,0.875172
6.034179,0.885809
6.097466,0.89001
6.162091,0.896497
6.228099,0.912483
6.295533,0.924653
6.36444,0.92993
6.434869,0.939556
6.506872,0.95158
6.580501,0.959587
6.655812,0.972162
6.732864,0.979321
6.811718,0.984523
6.892437,0.991133
6.975089,0.0100011
7.059743,0.0100762
7.146475,0.010115
7.23536,0.0101958
7.326481,0.0102555
7.419922,0.0103286
7.515774,0.0103945
7.614131,0.0104548
7.715093,0.0105131
7.818764,0.0105756
7.925254,0.0106205
8.034682,0.0107172
8.147169,0.0107944
8.262847,0.0108564
8.381852,0.0108995
8.504331,0.0109579
8.630437,0.0109992
8.760335,0.0110298
8.894198,0.0110445
9.03221,0.0110691
9.174568,0.0110589
9.32148,0.0110812
9.473167,0.0110984
9.629868,0.0111033
9.791834,0.0111153
9.959336,0.0111411
10.1327,0.0111483
10.3121,0.0111402
10.498,0.0111282
10.69079,0.0111152
10.8907,0.0110945
11.0983,0.0110625
11.3139,0.0110208
11.5381,0.0109899
11.77129,0.0109484
12.0141,0.0109018
12.26716,0.0108451
12.5311,0.0108071
12.8066,0.0108228
13.09451,0.0107723
13.3956,0.010707
13.7109,0.0106209
14.0414,0.0105137
14.3882,0.010352
14.7526,0.998529
15.1359,0.907618
15.5396,0.683968
15.9654,0.378474

File: FTIR_LNR_3_9.csv
Database of Origin,University of Winnipeg Spectrophotometer Facility
Sample Description,Lunar samples/ analogues and glasses - D and P 102F FTIR spectra (from PSF) NASA Apollo lunar samples
Other Information,diffuse gold puck 100 spectra averaged
Date Added,2018-07-23 21:03:11.5912

Data ID,FTIR_LNR_3_9
Sample ID,apollo 12 ID# 12030 184 7
Grain Size,<1mm?
Viewing Geometry,i=30/ e=0
Resolution,3 cm-1
Composition,regolith sample

Wavelength
2.001142,0.16108
2.008155,0.161099
2.015217,0.16139
2.022328,0.161304
2.029488,0.16127
2.036698,0.162077
2.043959,0.162401
2.051271,0.162665
2.058635,0.163364
2.066051,0.164071
2.073519,0.163991
2.081041,0.164793
2.088617,0.165006
2.096247,0.166125
2.103932,0.166019
2.111673,0.165746
2.119471,0.166436
2.127325,0.166573
2.135237,0.166642
2.143207,0.166984
2.151235,0.167725
2.159324,0.168501
2.167472,0.16983
2.175682,0.170508
2.183952,0.171213
2.192285,0.171673
2.200682,0.17294
2.209141,0.173597
2.217665,0.17481
2.226254,0.174904
2.23491,0.175216
2.243631,0.176374
2.252421,0.176791
2.261278,0.177925
2.270204,0.178589
2.279201,0.179268
2.288268,0.180189
2.297406,0.180936
2.306617,0.182195
2.315901,0.182962
2.325259,0.183271
2.334692,0.18447
2.344201,0.184618
2.353787,0.184711
2.363451,0.185465
2.373194,0.186209
2.383016,0.186942
2.392919,0.187403
2.402903,0.1876994
2.412971,0.188684
2.423122,0.189208
2.433358,0.190576
2.443679,0.192073
2.454088,0.192165
2.464585,0.192666
2.475171,0.193673
2.485847,0.194054
2.496615,0.195684
2.507476,0.196766
2.518431,0.197832
2.52948,0.199021
2.540627,0.200366
2.55187,0.20399
2.563213,0.206534
2.574656,0.205571
2.586201,0.206367
2.597849,0.205145
2.609601,0.208542
2.621459,0.2118
2.633424,0.20973
2.645498,0.210174
2.657682,0.209626
2.669978,0.220761
2.682387,0.210455
2.694911,0.214626
2.707552,0.20681
2.72031,0.207093
2.733188,0.192285
2.746188,0.186901
2.759311,0.183934
2.772559,0.183273
2.785934,0.181433
2.799437,0.18052
2.813071,0.179799
2.826837,0.179913
2.840737,0.179027
2.854774,0.179385
2.868949,0.17958
2.883265,0.178745
2.897723,0.178808
2.912325,0.178507
2.927075,0.178096
2.941973,0.178998
2.957023,0.180706
2.972226,0.179901
2.987586,0.180729
3.003103,0.183642
3.018782,0.183138
3.034624,0.187844
3.050632,0.186545
3.066809,0.189469
3.083157,0.189303
3.099679,0.190709
3.116378,0.189996
3.133257,0.189697
3.150319,0.191145
3.167566,0.19168
3.185001,0.19334
3.202629,0.195022
3.220451,0.197916
3.238472,0.197393
3.256694,0.201983
3.275122,0.199852
3.293757,0.201964
3.312605,0.202729
3.331669,0.20631
3.350952,0.205711
3.370458,0.205485
3.390191,0.206366
3.410156,0.208726
3.430355,0.211036
3.450794,0.214291
3.471477,0.216855
3.492408,0.222725
3.513592,0.223127
3.535032,0.229187
3.556735,0.230392
3.578704,0.233965
3.600946,0.23769
3.623463,0.2407149
3.646263,0.244336
3.669351,0.249307
3.692731,0.25414
3.716409,0.260038
3.740392,0.266038
3.764685,0.27164
3.789294,0.278613
3.814225,0.286083
3.839486,0.292855
3.865081,0.299968
3.891019,0.307278
3.917305,0.315542
3.943948,0.324657
3.970954,0.335964
3.99833,0.345253
4.026086,0.355204
4.054228,0.366176
4.082764,0.378691
4.111703,0.392822
4.141054,0.408547
4.170826,0.424536
4.201026,0.442173
4.231666,0.464756
4.262754,0.480277
4.294301,0.501449
4.326317,0.521248
4.358811,0.5434
4.391796,0.565506
4.425282,0.590624
4.459281,0.612117
4.493805,0.63082
4.528865,0.646933
4.564475,0.663402
4.600648,0.681015
4.637397,0.698078
4.674735,0.71783
4.712678,0.73965
4.75124,0.762501
4.790436,0.7827
4.830283,0.798781
4.870795,0.81221
4.911991,0.822233
4.953888,0.832199
4.996504,0.841163
5.039857,0.850847
5.083967,0.861505
5.128854,0.871024
5.174538,0.879456
5.221041,0.890367
5.268386,0.900041
5.316595,0.910322
5.365692,0.923064
5.415701,0.955778
5.46665,0.0110036
5.518564,0.685599
5.57147,0.592854
5.625399,0.702808
5.680379,0.748929
5.736443,0.779694
5.793621,0.802782
5.851948,0.820879
5.911459,0.839588
5.97219,0.851922
6.034179,0.861483
6.097466,0.866047
6.162091,0.87202
6.228099,0.889591
6.295533,0.902926
6.36444,0.90854
6.434869,0.917203
6.506872,0.929651
6.580501,0.938691
6.655812,0.950935
6.732864,0.958318
6.811718,0.963499
6.892437,0.970126
6.975089,0.978487
7.059743,0.986193
7.146475,0.990309
7.23536,0.99784
7.326481,0.0100452
7.419922,0.0101148
7.515774,0.0101736
7.614131,0.0102359
7.715093,0.0102896
7.818764,0.0103466
7.925254,0.0103964
8.034682,0.0104918
8.147169,0.0105641
8.262847,0.0106326
8.381852,0.0106803
8.504331,0.0107415
8.630437,0.010784
8.760335,0.0108206
8.894198,0.0108358
9.03221,0.010862
9.174568,0.0108577
9.32148,0.0108759
9.473167,0.0108977
9.629868,0.0109056
9.791834,0.0109208
9.959336,0.0109485
10.1327,0.0109566
10.3121,0.0109519
10.498,0.0109467
10.69079,0.0109323
10.8907,0.0109162
11.0983,0.0108814
11.3139,0.010847
11.5381,0.0108236
11.77129,0.0107804
12.0141,0.0107327
12.26716,0.0106835
12.5311,0.0106472
12.8066,0.0106634
13.09451,0.0106145
13.3956,0.0105571
13.7109,0.0104677
14.0414,0.0103661
14.3882,0.0101981
14.7526,0.983246
15.1359,0.89119
15.5396,0.666508
15.9654,0.368081