Folder: wwu_spec/csv_library (part 12)

File: FTIR_PYX_05.csv
Database of Origin,University of Winnipeg Spectrophotometer Facility
Sample Description,"HOSERLab master pyroxenes, FTIR data"
Date Added,2016-12-14 03:34:49.64

Data ID,FTIR_PYX_05
Sample ID,PYX032
Mineral Name,Orthopyroxene
Grain Size,<45 um
Viewing Geometry,"i=30, e=0"
Material Class,Inosilicate

Wavelength
2000.56,0.284628
2006.983,0.284592
2013.447,0.285129
2019.952,0.285665
2026.499,0.285515
2033.087,0.286743
2039.718,0.288247
2046.391,0.288605
2053.107,0.289432
2059.867,0.290521
2066.671,0.291478
2073.519,0.293385
2080.412,0.29464
2087.35,0.296289
2094.334,0.297303
2101.364,0.298954
2108.441,0.299204
2115.565,0.299863
2122.736,0.302128
2129.956,0.3043053
2137.224,0.3056488
2144.541,0.308045
2151.907,0.309531
2159.324,0.312281
2166.791,0.315918
2174.309,0.317835
2181.879,0.32042
2189.501,0.323357
2197.175,0.325765
2204.903,0.32806
2212.685,0.330716
2220.521,0.333466
2228.412,0.336009
2236.359,0.3375778
2244.361,0.339628
2252.421,0.341755
2260.537,0.344648
2268.712,0.346018
2276.945,0.348446
2285.237,0.350585
2293.59,0.353304
2302.002,0.355191
2310.476,0.357398
2319.012,0.3585652
2327.61,0.3611441
2336.272,0.363298
2344.997,0.365962
2353.787,0.368376
2362.643,0.3705942
2371.564,0.371262
2380.553,0.372858
2389.609,0.375145
2398.733,0.376641
2407.926,0.378263
2417.19,0.3797222
2426.524,0.381165
2435.93,0.382333
2445.408,0.383941
2454.959,0.384938
2464.585,0.386337
2474.285,0.387612
2484.062,0.388582
2493.915,0.389109
2503.845,0.390375
2513.855,0.392769
2523.944,0.3936589
2534.113,0.39478
2544.364,0.395793
2554.697,0.395927
2565.113,0.397606
2575.615,0.399687
2586.201,0.400038
2596.874,0.400422
2607.635,0.400927
2618.485,0.40272
2629.424,0.404069
2640.454,0.40036
2651.576,0.402291
2662.792,0.4042527
2674.102,0.403363
2685.507,0.398912
2697.01,0.3899092
2708.61,0.377088
2720.31,0.349925
2732.111,0.297195
2744.013,0.26014
2756.019,0.2452744
2768.129,0.231622
2780.345,0.225247
2792.669,0.220022
2805.102,0.216099
2817.645,0.215665
2830.299,0.215674
2843.067,0.21534
2855.95,0.214491
2868.949,0.213214
2882.066,0.210996
2895.303,0.208981
2908.661,0.208148
2922.142,0.207522
2935.747,0.206187
2949.479,0.20851
2963.339,0.207692
2977.328,0.212145
2991.45,0.213772
3005.705,0.217027
3020.096,0.219502
3034.624,0.224781
3049.292,0.225931
3064.101,0.229255
3079.054,0.231426
3094.153,0.233647
3109.399,0.235289
3124.795,0.238307
3140.344,0.241414
3156.047,0.244574
3171.907,0.248767
3187.926,0.252762
3204.106,0.257388
3220.451,0.26359
3236.963,0.265539
3253.643,0.271263
3270.495,0.273952
3287.522,0.277355
3304.726,0.281169
3322.11,0.284593
3339.676,0.285879
3357.429,0.28796
3375.37,0.290224
3393.502,0.292619
3411.83,0.2951269
3430.355,0.299295
3449.082,0.303916
3468.013,0.304733
3487.152,0.305447
3506.502,0.308194
3526.067,0.312406
3545.851,0.315776
3565.856,0.318576
3586.088,0.321406
3606.549,0.321458
3627.244,0.324018
3648.176,0.326751
3669.351,0.327912
3690.771,0.330119
3712.442,0.332839
3734.368,0.334898
3756.553,0.338296
3779.001,0.34016
3801.719,0.342938
3824.71,0.3447856
3847.98,0.3475174
3871.533,0.350905
3895.375,0.354358
3919.512,0.356883
3943.948,0.360236
3968.689,0.363759
3993.742,0.369868
4019.111,0.377789
4044.804,0.384388
4070.825,0.391302
4097.183,0.399254
4123.882,0.4090076
4150.931,0.419641
4178.335,0.430162
4206.102,0.453259
4234.24,0.499272
4262.754,0.493901
4291.655,0.515697
4320.948,0.516876
4350.642,0.519115
4380.746,0.531523
4411.268,0.549441
4442.217,0.5656475
4473.602,0.578527
4505.431,0.588997
4537.716,0.599882
4570.465,0.611402
4603.688,0.624516
4637.397,0.635872
4671.601,0.649754
4706.312,0.663882
4741.541,0.676352
4777.299,0.690729
4813.6,0.703929
4850.455,0.714281
4887.876,0.724049
4925.878,0.73464
4964.474,0.745444
5003.678,0.753904
5043.504,0.762907
5083.967,0.773782
5125.083,0.781323
5166.868,0.7906715
5209.338,0.806047
5252.51,0.811016
5296.401,0.824124
5341.031,0.835458
5386.417,0.840921
5432.579,0.85625
5479.537,0.883555
5527.312,0.945557
5575.925,0.6184056
5625.399,0.78653
5675.757,0.82082
5727.022,0.841722
5779.22,0.861241
5832.376,0.876329
5886.517,0.893422
5941.67,0.8995751
5997.864,0.90144
6055.129,0.9125
6113.495,0.917952
6172.996,0.92435
6233.663,0.931833
6295.533,0.938344
6358.64,0.947791
6423.023,0.952846
6488.721,0.95854
6555.774,0.9622914
6624.224,0.970101
6694.117,0.972399
6765.497,0.977761
6838.413,0.981005
6912.916,0.984101
6989.057,0.988849
7066.891,0.993799
7146.475,0.997731
7227.869,0.0100075
7311.135,0.0100468
7396.34,0.0100943
7483.55,0.0101365
7572.838,0.0101636
7664.28,0.0101769
7757.953,0.0102066
7853.942,0.0102533
7952.331,0.010297
8053.214,0.0103409
8156.686,0.0103732
8262.847,0.0104117
8371.804,0.0104528
8483.67,0.0104822
8598.562,0.0105013
8716.604,0.0105202
8837.928,0.0105538
8962.673,0.0105834
9090.986,0.0105714
9223.022,0.0105403
9358.945,0.0105296
9498.929,0.0105379
9643.16,0.010549
9791.834,0.0105523
9945.159,0.0105654
10103.357,0.01056715
10266.663,0.0105843
10435.331,0.0105976
10609.627,0.0105936
10789.839,0.0105953
10976.272,0.0105979
11169.256,0.0105833
11369.141,0.010569
11576.304,0.0105366
11791.15,0.0105195
12014.114,0.0105196
12245.667,0.0105162
12486.313,0.0104972
12736.599,0.0104876
12997.116,0.0104978
13268.505,0.0105181
13551.461,0.0105104
13846.739,0.0104632
14155.163,0.0104379
14477.629,0.0103913
14815.121,0.0103438
15168.712,0.0102002
15539.583,0.966795
15929.033,0.81795
15965.407,0.78753

File: FTIR_PYX_06.csv
Database of Origin,University of Winnipeg Spectrophotometer Facility
Sample Description,"HOSERLab master pyroxenes, FTIR data"
Date Added,2016-12-14 03:34:49.6709

Data ID,FTIR_PYX_06
Sample ID,PYX032
Mineral Name,Orthopyroxene
Grain Size,45-90 um
Viewing Geometry,"i=30, e=0"
Material Class,Inosilicate

Wavelength
2000.56,0.162821
2006.983,0.16361
2013.447,0.163811
2019.952,0.165044
2026.499,0.165194
2033.087,0.165639
2039.718,0.166583
2046.391,0.167195
2053.107,0.168191
2059.867,0.169101
2066.671,0.170407
2073.519,0.171417
2080.412,0.172422
2087.35,0.174089
2094.334,0.175131
2101.364,0.176712
2108.441,0.177005
2115.565,0.17766
2122.736,0.179721
2129.956,0.183368
2137.224,0.184412
2144.541,0.187019
2151.907,0.1894338
2159.324,0.192638
2166.791,0.195575
2174.309,0.198572
2181.879,0.201182
2189.501,0.204495
2197.175,0.2079119
2204.903,0.2113579
2212.685,0.215236
2220.521,0.218788
2228.412,0.222034
2236.359,0.224708
2244.361,0.228253
2252.421,0.2316717
2260.537,0.235473
2268.712,0.2388238
2276.945,0.242804
2285.237,0.246233
2293.59,0.250284
2302.002,0.253683
2310.476,0.25744
2319.012,0.260327
2327.61,0.264743
2336.272,0.2684504
2344.997,0.272793
2353.787,0.27711
2362.643,0.281502
2371.564,0.284958
2380.553,0.289013
2389.609,0.292667
2398.733,0.296213
2407.926,0.300008
2417.19,0.303662
2426.524,0.306449
2435.93,0.309989
2445.408,0.31331
2454.959,0.315858
2464.585,0.318855
2474.285,0.321441
2484.062,0.323946
2493.915,0.326327
2503.845,0.328886
2513.855,0.3309151
2523.944,0.33306
2534.113,0.3356085
2544.364,0.337531
2554.697,0.339216
2565.113,0.341543
2575.615,0.344259
2586.201,0.34705
2596.874,0.3478053
2607.635,0.348665
2618.485,0.351472
2629.424,0.352623
2640.454,0.349693
2651.576,0.351361
2662.792,0.352766
2674.102,0.351519
2685.507,0.346126
2697.01,0.339705
2708.61,0.330759
2720.31,0.289079
2732.111,0.233148
2744.013,0.198094
2756.019,0.184167
2768.129,0.1730406
2780.345,0.16784
2792.669,0.164163
2805.102,0.160436
2817.645,0.160092
2830.299,0.159799
2843.067,0.160366
2855.95,0.159053
2868.949,0.1590051
2882.066,0.158448
2895.303,0.157437
2908.661,0.156335
2922.142,0.156788
2935.747,0.156344
2949.479,0.15888
2963.339,0.1580417
2977.328,0.162294
2991.45,0.163133
3005.705,0.166028
3020.096,0.168696
3034.624,0.174192
3049.292,0.174772
3064.101,0.178248
3079.054,0.179103
3094.153,0.1808383
3109.399,0.1826038
3124.795,0.185382
3140.344,0.187782
3156.047,0.19058
3171.907,0.194113
3187.926,0.197896
3204.106,0.201542
3220.451,0.206863
3236.963,0.20789
3253.643,0.213086
3270.495,0.214465
3287.522,0.216471
3304.726,0.218635
3322.11,0.220375
3339.676,0.221092
3357.429,0.222145
3375.37,0.22383
3393.502,0.225473
3411.83,0.227288
3430.355,0.228771
3449.082,0.2318125
3468.013,0.232633
3487.152,0.233232
3506.502,0.235215
3526.067,0.238402
3545.851,0.240056
3565.856,0.241892
3586.088,0.244423
3606.549,0.244247
3627.244,0.245736
3648.176,0.247483
3669.351,0.248366
3690.771,0.249991
3712.442,0.251533
3734.368,0.253553
3756.553,0.256776
3779.001,0.258181
3801.719,0.260096
3824.71,0.262679
3847.98,0.265718
3871.533,0.269083
3895.375,0.272701
3919.512,0.276034
3943.948,0.279082
3968.689,0.283182
3993.742,0.28902
4019.111,0.296995
4044.804,0.303944
4070.825,0.311812
4097.183,0.32062
4123.882,0.330611
4150.931,0.34191
4178.335,0.353934
4206.102,0.381916
4234.24,0.444092
4262.754,0.431474
4291.655,0.458503
4320.948,0.454738
4350.642,0.454159
4380.746,0.467513
4411.268,0.487828
4442.217,0.505867
4473.602,0.520034
4505.431,0.5315
4537.716,0.542798
4570.465,0.555288
4603.688,0.568923
4637.397,0.58187
4671.601,0.597068
4706.312,0.611596
4741.541,0.625352
4777.299,0.640621
4813.6,0.654106
4850.455,0.6640347
4887.876,0.673367
4925.878,0.684542
4964.474,0.69566
5003.678,0.70443
5043.504,0.714417
5083.967,0.726624
5125.083,0.73449
5166.868,0.744649
5209.338,0.762235
5252.51,0.7671404
5296.401,0.7817125
5341.031,0.794222
5386.417,0.799413
5432.579,0.815436
5479.537,0.839369
5527.312,0.878211
5575.925,0.656676
5625.399,0.788592
5675.757,0.811209
5727.022,0.83061
5779.22,0.846932
5832.376,0.8628424
5886.517,0.8836262
5941.67,0.887149
5997.864,0.887874
6055.129,0.9027644
6113.495,0.907957
6172.996,0.910874
6233.663,0.913654
6295.533,0.917945
6358.64,0.928522
6423.023,0.935902
6488.721,0.943869
6555.774,0.946539
6624.224,0.955345
6694.117,0.954677
6765.497,0.960127
6838.413,0.963545
6912.916,0.965502
6989.057,0.97048
7066.891,0.975328
7146.475,0.980342
7227.869,0.983097
7311.135,0.987583
7396.34,0.991876
7483.55,0.996224
7572.838,0.99921
7664.28,0.0100031
7757.953,0.010033
7853.942,0.010076
7952.331,0.0101212
8053.214,0.0101624
8156.686,0.0101938
8262.847,0.0102278
8371.804,0.0102634
8483.67,0.01029098
8598.562,0.0103053
8716.604,0.0103267
8837.928,0.0103598
8962.673,0.0103847
9090.986,0.0103718
9223.022,0.0103396
9358.945,0.0103306
9498.929,0.0103376
9643.16,0.0103472
9791.834,0.0103554
9945.159,0.0103727
10103.357,0.0103734
10266.663,0.0103948
10435.331,0.010411
10609.627,0.0104099
10789.839,0.0104145
10976.272,0.0104154
11169.256,0.0104012
11369.141,0.0103902
11576.304,0.0103659
11791.15,0.0103597
12014.114,0.0103708
12245.667,0.0103691
12486.313,0.010348
12736.599,0.0103411
12997.116,0.010348
13268.505,0.0103643
13551.461,0.0103595
13846.739,0.0103141
14155.163,0.0102902
14477.629,0.0102455
14815.121,0.0101841
15168.712,0.0100164
15539.583,0.931423
15929.033,0.757308
15965.407,0.731265

File: FTIR_PYX_07.csv
Database of Origin,University of Winnipeg Spectrophotometer Facility
Sample Description,"HOSERLab master pyroxenes, FTIR data"
Date Added,2016-12-14 03:34:49.7024

Data ID,FTIR_PYX_07
Sample ID,PYX042
Mineral Name,Orthopyroxene
Grain Size,<45 um
Viewing Geometry,"i=30, e=0"
Material Class,Inosilicate

Wavelength
2000.56,0.502902
2006.983,0.5059111
2013.447,0.5100539
2019.952,0.513327
2026.499,0.516848
2033.087,0.520771
2039.718,0.526083
2046.391,0.529607
2053.107,0.534053
2059.867,0.538094
2066.671,0.542625
2073.519,0.54772
2080.412,0.552959
2087.35,0.5578639
2094.334,0.562431
2101.364,0.567023
2108.441,0.573442
2115.565,0.577912
2122.736,0.582799
2129.956,0.588147
2137.224,0.5939147
2144.541,0.598505
2151.907,0.603489
2159.324,0.607922
2166.791,0.613371
2174.309,0.6176346
2181.879,0.62193
2189.501,0.628045
2197.175,0.63256
2204.903,0.637344
2212.685,0.6419774
2220.521,0.645985
2228.412,0.647737
2236.359,0.650867
2244.361,0.654349
2252.421,0.656508
2260.537,0.65962
2268.712,0.659593
2276.945,0.661225
2285.237,0.658707
2293.59,0.659401
2302.002,0.659806
2310.476,0.654263
2319.012,0.660974
2327.61,0.667805
2336.272,0.672914
2344.997,0.67706
2353.787,0.680433
2362.643,0.683422
2371.564,0.682524
2380.553,0.681935
2389.609,0.6832742
2398.733,0.685848
2407.926,0.689859
2417.19,0.690566
2426.524,0.689859
2435.93,0.68938
2445.408,0.689813
2454.959,0.689387
2464.585,0.68957
2474.285,0.690315
2484.062,0.690368
2493.915,0.689578
2503.845,0.689523
2513.855,0.689721
2523.944,0.689784
2534.113,0.689487
2544.364,0.6904287
2554.697,0.690881
2565.113,0.689793
2575.615,0.690016
2586.201,0.689353
2596.874,0.687324
2607.635,0.688056
2618.485,0.687608
2629.424,0.689012
2640.454,0.688678
2651.576,0.686922
2662.792,0.68213
2674.102,0.670256
2685.507,0.631308
2697.01,0.530616
2708.61,0.404092
2720.31,0.328598
2732.111,0.342374
2744.013,0.3461
2756.019,0.345966
2768.129,0.343986
2780.345,0.3447613
2792.669,0.34627
2805.102,0.346738
2817.645,0.349558
2830.299,0.349797
2843.067,0.347153
2855.95,0.346833
2868.949,0.345613
2882.066,0.343883
2895.303,0.341831
2908.661,0.340835
2922.142,0.339751
2935.747,0.339009
2949.479,0.3409
2963.339,0.341928
2977.328,0.346223
2991.45,0.3495046
3005.705,0.353907
3020.096,0.357711
3034.624,0.36446
3049.292,0.367498
3064.101,0.372011
3079.054,0.375766
3094.153,0.380129
3109.399,0.384063
3124.795,0.389306
3140.344,0.396071
3156.047,0.402778
3171.907,0.409499
3187.926,0.4154585
3204.106,0.421776
3220.451,0.428962
3236.963,0.434004
3253.643,0.4404353
3270.495,0.444972
3287.522,0.45012
3304.726,0.4542506
3322.11,0.459082
3339.676,0.462999
3357.429,0.464572
3375.37,0.460527
3393.502,0.463205
3411.83,0.45773
3430.355,0.46629
3449.082,0.478486
3468.013,0.483255
3487.152,0.484662
3506.502,0.485131
3526.067,0.499356
3545.851,0.504727
3565.856,0.508273
3586.088,0.511221
3606.549,0.512146
3627.244,0.514604
3648.176,0.517098
3669.351,0.51828
3690.771,0.519414
3712.442,0.5209
3734.368,0.5229445
3756.553,0.524818
3779.001,0.525909
3801.719,0.527119
3824.71,0.527341
3847.98,0.528726
3871.533,0.530425
3895.375,0.533003
3919.512,0.533549
3943.948,0.533863
3968.689,0.536314
3993.742,0.5386095
4019.111,0.540568
4044.804,0.541676
4070.825,0.544155
4097.183,0.547852
4123.882,0.55232
4150.931,0.556786
4178.335,0.561431
4206.102,0.578082
4234.24,0.619324
4262.754,0.605982
4291.655,0.622459
4320.948,0.615536
4350.642,0.612137
4380.746,0.618432
4411.268,0.63022
4442.217,0.64114
4473.602,0.64901
4505.431,0.65625
4537.716,0.660576
4570.465,0.664361
4603.688,0.668551
4637.397,0.66883
4671.601,0.673688
4706.312,0.682209
4741.541,0.690067
4777.299,0.696387
4813.6,0.700871
4850.455,0.707317
4887.876,0.714988
4925.878,0.725985
4964.474,0.735319
5003.678,0.741416
5043.504,0.745614
5083.967,0.750593
5125.083,0.75233
5166.868,0.7610484
5209.338,0.780893
5252.51,0.788078
5296.401,0.80248
5341.031,0.81328
5386.417,0.815789
5432.579,0.825397
5479.537,0.841495
5527.312,0.866008
5575.925,0.716808
5625.399,0.8188
5675.757,0.831875
5727.022,0.843465
5779.22,0.852476
5832.376,0.859907
5886.517,0.874133
5941.67,0.875374
5997.864,0.872445
6055.129,0.884669
6113.495,0.889312
6172.996,0.892932
6233.663,0.8964036
6295.533,0.900862
6358.64,0.912707
6423.023,0.920865
6488.721,0.928356
6555.774,0.930839
6624.224,0.939366
6694.117,0.937743
6765.497,0.942958
6838.413,0.945846
6912.916,0.947147
6989.057,0.951753
7066.891,0.956253
7146.475,0.961718
7227.869,0.96371
7311.135,0.968085
7396.34,0.972368
7483.55,0.976373
7572.838,0.9791
7664.28,0.980211
7757.953,0.982826
7853.942,0.987074
7952.331,0.99154
8053.214,0.995464
8156.686,0.998345
8262.847,0.010017
8371.804,0.0100548
8483.67,0.0100845
8598.562,0.0101036
8716.604,0.0101275
8837.928,0.0101603
8962.673,0.0101914
9090.986,0.0101899
9223.022,0.0101634
9358.945,0.0101549
9498.929,0.0101761
9643.16,0.0101949
9791.834,0.0102012
9945.159,0.0101985
10103.357,0.0102062
10266.663,0.0102321
10435.331,0.0102461
10609.627,0.0102491
10789.839,0.0102433
10976.272,0.0102484
11169.256,0.0102501
11369.141,0.0102278
11576.304,0.0102064
11791.15,0.0101948
12014.114,0.0101996
12245.667,0.0101936
12486.313,0.0101736
12736.599,0.0101657
12997.116,0.010176
13268.505,0.0102007
13551.461,0.0102026
13846.739,0.0101653
14155.163,0.0101448
14477.629,0.0100999
14815.121,0.0100378
15168.712,0.984895
15539.583,0.905857
15929.033,0.755917
15965.407,0.738928

File: FTIR_PYX_08.csv
Database of Origin,University of Winnipeg Spectrophotometer Facility
Sample Description,"HOSERLab master pyroxenes, FTIR data"
Date Added,2016-12-14 03:34:49.7336

Data ID,FTIR_PYX_08
Sample ID,PYX042
Mineral Name,Orthopyroxene
Grain Size,45-90 um
Viewing Geometry,"i=30, e=0"
Material Class,Inosilicate

Wavelength
2000.56,0.269192
2006.983,0.272684
2013.447,0.277101
2019.952,0.281753
2026.499,0.285879
2033.087,0.290042
2039.718,0.295292
2046.391,0.300621
2053.107,0.306397
2059.867,0.312123
2066.671,0.31731
2073.519,0.323369
2080.412,0.329533
2087.35,0.336159
2094.334,0.343383
2101.364,0.3502025
2108.441,0.357434
2115.565,0.3640117
2122.736,0.371014
2129.956,0.378887
2137.224,0.386036
2144.541,0.394626
2151.907,0.402053
2159.324,0.410346
2166.791,0.418041
2174.309,0.426535
2181.879,0.434315
2189.501,0.443102
2197.175,0.451201
2204.903,0.459368
2212.685,0.4671176
2220.521,0.475414
2228.412,0.481625
2236.359,0.487696
2244.361,0.495021
2252.421,0.501774
2260.537,0.508118
2268.712,0.512547
2276.945,0.517489
2285.237,0.518854
2293.59,0.523954
2302.002,0.526532
2310.476,0.523813
2319.012,0.533775
2327.61,0.544243
2336.272,0.552485
2344.997,0.559385
2353.787,0.565706
2362.643,0.5709384
2371.564,0.572535
2380.553,0.573385
2389.609,0.575855
2398.733,0.581333
2407.926,0.586567
2417.19,0.588961
2426.524,0.589729
2435.93,0.591175
2445.408,0.592915
2454.959,0.593902
2464.585,0.594605
2474.285,0.596067
2484.062,0.597819
2493.915,0.597098
2503.845,0.59741
2513.855,0.597358
2523.944,0.597538
2534.113,0.597686
2544.364,0.598682
2554.697,0.599085
2565.113,0.597286
2575.615,0.597371
2586.201,0.596708
2596.874,0.59562
2607.635,0.5961247
2618.485,0.59628
2629.424,0.59699
2640.454,0.596605
2651.576,0.594819
2662.792,0.589397
2674.102,0.576107
2685.507,0.531357
2697.01,0.428636
2708.61,0.31771
2720.31,0.270112
2732.111,0.2834372
2744.013,0.291878
2756.019,0.29686
2768.129,0.300256
2780.345,0.305168
2792.669,0.309769
2805.102,0.312975
2817.645,0.318037
2830.299,0.318735
2843.067,0.31144
2855.95,0.313685
2868.949,0.318861
2882.066,0.319797
2895.303,0.319214
2908.661,0.31841
2922.142,0.317272
2935.747,0.316654
2949.479,0.318616
2963.339,0.318337
2977.328,0.321684
2991.45,0.323832
3005.705,0.326437
3020.096,0.328987
3034.624,0.333571
3049.292,0.333891
3064.101,0.3369
3079.054,0.337991
3094.153,0.339518
3109.399,0.340825
3124.795,0.343474
3140.344,0.345683
3156.047,0.349285
3171.907,0.351503
3187.926,0.354152
3204.106,0.356312
3220.451,0.359764
3236.963,0.360333
3253.643,0.3639312
3270.495,0.365639
3287.522,0.367715
3304.726,0.369649
3322.11,0.3722627
3339.676,0.373614
3357.429,0.373751
3375.37,0.372084
3393.502,0.373847
3411.83,0.371863
3430.355,0.375165
3449.082,0.379326
3468.013,0.380225
3487.152,0.380267
3506.502,0.380799
3526.067,0.384206
3545.851,0.385382
3565.856,0.385662
3586.088,0.386495
3606.549,0.385281
3627.244,0.385349
3648.176,0.385794
3669.351,0.385226
3690.771,0.385156
3712.442,0.3845374
3734.368,0.385093
3756.553,0.386009
3779.001,0.385858
3801.719,0.38596
3824.71,0.38676
3847.98,0.38857
3871.533,0.389643
3895.375,0.390764
3919.512,0.39203
3943.948,0.393707
3968.689,0.3969664
3993.742,0.399939
4019.111,0.40254
4044.804,0.404592
4070.825,0.409413
4097.183,0.4150532
4123.882,0.4212244
4150.931,0.428303
4178.335,0.435809
4206.102,0.45836
4234.24,0.513217
4262.754,0.498177
4291.655,0.5199115
4320.948,0.513033
4350.642,0.5096681
4380.746,0.51932
4411.268,0.535268
4442.217,0.549277
4473.602,0.559645
4505.431,0.568591
4537.716,0.574042
4570.465,0.578721
4603.688,0.582487
4637.397,0.584661
4671.601,0.592728
4706.312,0.604982
4741.541,0.615639
4777.299,0.625174
4813.6,0.633001
4850.455,0.642017
4887.876,0.652836
4925.878,0.665151
4964.474,0.6766923
5003.678,0.684493
5043.504,0.6914189
5083.967,0.700233
5125.083,0.705264
5166.868,0.7159494
5209.338,0.737915
5252.51,0.745463
5296.401,0.761548
5341.031,0.774501
5386.417,0.777931
5432.579,0.79023
5479.537,0.809223
5527.312,0.838127
5575.925,0.690565
5625.399,0.788483
5675.757,0.804961
5727.022,0.819023
5779.22,0.83219
5832.376,0.844448
5886.517,0.8667348
5941.67,0.866902
5997.864,0.8635225
6055.129,0.880844
6113.495,0.885537
6172.996,0.88697
6233.663,0.887634
6295.533,0.891967
6358.64,0.904092
6423.023,0.914332
6488.721,0.923194
6555.774,0.9239301
6624.224,0.933617
6694.117,0.929472
6765.497,0.935306
6838.413,0.938753
6912.916,0.939484
6989.057,0.944288
7066.891,0.948886
7146.475,0.955243
7227.869,0.95655
7311.135,0.961236
7396.34,0.965325
7483.55,0.969583
7572.838,0.972503
7664.28,0.973741
7757.953,0.97661
7853.942,0.980844
7952.331,0.985132
8053.214,0.989253
8156.686,0.992204
8262.847,0.995361
8371.804,0.998828
8483.67,0.010015
8598.562,0.0100327
8716.604,0.0100503
8837.928,0.0100796
8962.673,0.0101068
9090.986,0.0101047
9223.022,0.0100793
9358.945,0.0100695
9498.929,0.0100857
9643.16,0.0101074
9791.834,0.0101129
9945.159,0.0101118
10103.357,0.0101165
10266.663,0.0101419
10435.331,0.0101554
10609.627,0.0101621
10789.839,0.0101565
10976.272,0.0101672
11169.256,0.0101661
11369.141,0.0101456
11576.304,0.0101245
11791.15,0.0101226
12014.114,0.0101335
12245.667,0.0101328
12486.313,0.0101212
12736.599,0.0101154
12997.116,0.010128
13268.505,0.010141
13551.461,0.0101368
13846.739,0.0101056
14155.163,0.0100894
14477.629,0.010051
14815.121,0.999736
15168.712,0.981811
15539.583,0.909207
15929.033,0.753919
15965.407,0.735109