Folder: wwu_spec/csv_library (part 9)

File: FTIR_OLI_01.csv
Database of Origin,University of Winnipeg Spectrophotometer Facility
Sample Description,FTIR spectra of Olivnes from PSF sample database See Master Olivines in PSF sample database for additional info
Date Added,2016-12-06 04:17:21.4966

Data ID,FTIR_OLI_01
Sample ID,olv102m
Mineral Name,Olivine
Grain Size,<45 um
Viewing Geometry,"i=30, e=0?"
Resolution,~1.5 cm-1
Material Class,Nesosilicate

Wavelength
1999.978,0.82306
2006.397,0.819373
2012.858,0.81534
2019.359,0.812719
2025.902,0.810485
2032.486,0.809618
2039.113,0.807614
2045.782,0.805906
2052.495,0.805682
2059.251,0.80445
2066.051,0.802559
2072.895,0.8019431
2079.784,0.79843
2086.718,0.795975
2093.697,0.794411
2100.723,0.797264
2107.796,0.804397
2114.915,0.808888
2122.082,0.804772
2129.297,0.792974
2136.561,0.7974911
2143.873,0.796571
2151.235,0.794567
2158.647,0.785871
2166.11,0.780696
2173.624,0.776222
2181.189,0.773567
2188.806,0.772066
2196.476,0.7710942
2204.199,0.7690126
2211.975,0.763875
2219.806,0.757874
2227.692,0.751162
2235.634,0.742277
2243.631,0.7363094
2251.686,0.730404
2259.797,0.724971
2267.966,0.713336
2276.194,0.709658
2284.481,0.707571
2292.828,0.69986
2301.235,0.691224
2309.703,0.683141
2318.234,0.672103
2326.826,0.667539
2335.482,0.665825
2344.201,0.6778098
2352.986,0.684373
2361.835,0.684562
2370.751,0.678807
2379.733,0.675978
2388.783,0.673645
2397.901,0.671152
2407.088,0.668203
2416.345,0.6668889
2425.673,0.664407
2435.072,0.6589026
2444.543,0.660391
2454.088,0.659771
2463.707,0.656425
2473.4,0.65079
2483.17,0.645401
2493.016,0.64521
2502.939,0.638237
2512.942,0.640774
2523.023,0.64703
2533.185,0.655322
2543.428,0.659136
2553.754,0.655019
2564.163,0.687273
2574.656,0.689241
2585.235,0.70012
2595.9,0.758667
2606.653,0.715705
2617.495,0.718287
2628.426,0.703963
2639.447,0.646724
2650.561,0.647195
2661.768,0.660414
2673.07,0.669796
2684.467,0.596172
2695.96,0.444807
2707.552,0.265419
2719.242,0.30398
2731.034,0.295868
2742.927,0.333807
2754.923,0.376811
2767.024,0.3591422
2779.23,0.357273
2791.544,0.360867
2803.967,0.405136
2816.5,0.386391
2829.144,0.393605
2841.902,0.401677
2854.774,0.412313
2867.763,0.407086
2880.869,0.403972
2894.095,0.402333
2907.441,0.401644
2920.911,0.397196
2934.505,0.393826
2948.225,0.392713
2962.073,0.38913
2976.051,0.390256
2990.161,0.39056
3004.404,0.390284
3018.782,0.390564
3033.298,0.391338
3047.953,0.391355
3062.749,0.391667
3077.689,0.39199
3092.774,0.393626
3108.007,0.394213
3123.389,0.393932
3138.924,0.39259
3154.613,0.391948
3170.458,0.3907228
3186.463,0.389765
3202.629,0.390543
3218.958,0.389133
3235.455,0.386242
3252.12,0.385738
3268.956,0.384566
3285.967,0.383794
3303.155,0.384496
3320.522,0.384573
3338.072,0.385124
3355.807,0.387622
3373.731,0.389814
3391.846,0.388886
3410.156,0.385779
3428.663,0.390918
3447.371,0.397829
3466.283,0.401703
3485.403,0.405904
3504.734,0.409768
3524.28,0.421064
3544.043,0.428142
3564.028,0.434985
3584.239,0.441131
3604.679,0.44732
3625.353,0.453687
3646.263,0.460707
3667.416,0.467393
3688.814,0.474248
3710.461,0.482256
3732.364,0.48856
3754.525,0.4941891
3776.95,0.499335
3799.643,0.503133
3822.609,0.507716
3845.853,0.512227
3869.38,0.51405
3893.196,0.516566
3917.305,0.518176
3941.714,0.520274
3966.427,0.522692
3991.451,0.52675
4016.791,0.5298675
4042.454,0.5339532
4068.446,0.537056
4094.773,0.53977
4121.441,0.542273
4148.457,0.545582
4175.829,0.550815
4203.563,0.587882
4231.666,0.844422
4260.146,0.657002
4289.011,0.731148
4318.268,0.641915
4347.926,0.592519
4377.992,0.581819
4408.476,0.585228
4439.386,0.587631
4470.73,0.587297
4502.519,0.58893
4534.762,0.588996
4567.468,0.589423
4600.648,0.589406
4634.312,0.591488
4668.471,0.593853
4703.135,0.598248
4738.316,0.599156
4774.026,0.601213
4810.277,0.598893
4847.081,0.59767
4884.451,0.5793599
4922.399,0.560702
4960.941,0.56394
5000.088,0.572459
5039.857,0.580432
5080.262,0.586066
5121.318,0.584884
5163.041,0.583921
5205.448,0.587029
5248.555,0.587301
5292.381,0.598271
5336.942,0.600069
5382.259,0.603454
5428.349,0.65889
5475.234,0.010728
5522.934,0.722842
5571.47,0.07462093
5620.865,0.143064
5671.142,0.203867
5722.324,0.24592
5774.436,0.2750721
5827.503,0.2988819
5881.553,0.316273
5936.613,0.334523
5992.711,0.350467
6049.878,0.356267
6108.143,0.373529
6167.539,0.388883
6228.099,0.411201
6289.858,0.429764
6352.851,0.442578
6417.116,0.451156
6482.693,0.467068
6549.621,0.489158
6617.943,0.505661
6687.702,0.516339
6758.945,0.527889
6831.72,0.535373
6906.076,0.546083
6982.066,0.558625
7059.743,0.571234
7139.166,0.585049
7220.393,0.601532
7303.487,0.618372
7388.512,0.631764
7475.537,0.648379
7564.633,0.662082
7655.876,0.675377
7749.343,0.687358
7845.117,0.698707
7943.285,0.708546
8043.937,0.722105
8147.169,0.731199
8253.082,0.738901
8361.781,0.745477
8473.377,0.751568
8587.989,0.759213
8705.739,0.766966
8826.76,0.774855
8951.188,0.781379
9079.17,0.785333
9210.86,0.786712
9346.423,0.792434
9486.031,0.801013
9629.868,0.810183
9778.129,0.818951
9931.022,0.82953
10088.768,0.838864
10251.6,0.844315
10419.769,0.848992
10593.542,0.852305
10773.203,0.851591
10959.058,0.849211
11151.432,0.845333
11350.675,0.8422734
11557.16,0.841785
11771.29,0.841328
11993.497,0.8416761
12224.249,0.839079
12464.046,0.839144
12713.432,0.841521
12972.993,0.8408711
13243.366,0.834335
13525.24,0.826123
13819.365,0.815918
14126.558,0.794499
14447.709,0.7524006
14783.791,0.667489
15135.871,0.5114581
15505.12,0.278153
15892.824,0.142461
15965.407,0.130415

File: FTIR_OLI_02.csv
Database of Origin,University of Winnipeg Spectrophotometer Facility
Sample Description,FTIR spectra of Olivnes from PSF sample database See Master Olivines in PSF sample database for additional info
Date Added,2016-12-06 04:17:21.5374

Data ID,FTIR_OLI_02
Sample ID,olv102n
Mineral Name,Olivine
Grain Size,Whole rock
Viewing Geometry,"i=30, e=0?"
Resolution,~1.5 cm-1
Material Class,Nesosilicate

Wavelength
1999.978,0.43076
2006.397,0.44071
2012.858,0.454042
2019.359,0.4673446
2025.902,0.481909
2032.486,0.495694
2039.113,0.511644
2045.782,0.528911
2052.495,0.5465731
2059.251,0.566872
2066.051,0.583831
2072.895,0.602821
2079.784,0.61906
2086.718,0.637398
2093.697,0.657365
2100.723,0.693917
2107.796,0.756245
2114.915,0.805501
2122.082,0.825248
2129.297,0.77201
2136.561,0.831223
2143.873,0.847876
2151.235,0.8442487
2158.647,0.8267896
2166.11,0.800292
2173.624,0.779309
2181.189,0.783132
2188.806,0.785971
2196.476,0.786897
2204.199,0.782358
2211.975,0.748516
2219.806,0.710731
2227.692,0.678287
2235.634,0.638318
2243.631,0.61108
2251.686,0.584455
2259.797,0.558121
2267.966,0.527312
2276.194,0.5111979
2284.481,0.493652
2292.828,0.472181
2301.235,0.4510544
2309.703,0.429121
2318.234,0.407281
2326.826,0.394552
2335.482,0.386473
2344.201,0.39263
2352.986,0.395244
2361.835,0.385981
2370.751,0.372555
2379.733,0.363537
2388.783,0.3520541
2397.901,0.340495
2407.088,0.331797
2416.345,0.324489
2425.673,0.316563
2435.072,0.3059315
2444.543,0.301444
2454.088,0.2974825
2463.707,0.290053
2473.4,0.279896
2483.17,0.274686
2493.016,0.269465
2502.939,0.261152
2512.942,0.260111
2523.023,0.262685
2533.185,0.269889
2543.428,0.271163
2553.754,0.264525
2564.163,0.301827
2574.656,0.298695
2585.235,0.310953
2595.9,0.400716
2606.653,0.32923
2617.495,0.328453
2628.426,0.3068402
2639.447,0.245333
2650.561,0.249811
2661.768,0.268095
2673.07,0.290763
2684.467,0.242202
2695.96,0.191297
2707.552,0.131009
2719.242,0.1910462
2731.034,0.123577
2742.927,0.163835
2754.923,0.215887
2767.024,0.172821
2779.23,0.1736311
2791.544,0.186885
2803.967,0.3401
2816.5,0.252737
2829.144,0.266625
2841.902,0.294712
2854.774,0.3442703
2867.763,0.317763
2880.869,0.309789
2894.095,0.304705
2907.441,0.2975837
2920.911,0.272377
2934.505,0.249401
2948.225,0.234562
2962.073,0.212451
2976.051,0.200411
2990.161,0.184955
3004.404,0.176692
3018.782,0.1693761
3033.298,0.164551
3047.953,0.158985
3062.749,0.155219
3077.689,0.15351
3092.774,0.151548
3108.007,0.1493149
3123.389,0.145618
3138.924,0.141233
3154.613,0.137505
3170.458,0.1341791
3186.463,0.131722
3202.629,0.12998
3218.958,0.127999
3235.455,0.124227
3252.12,0.12267
3268.956,0.119822
3285.967,0.1179641
3303.155,0.117097
3320.522,0.115826
3338.072,0.115122
3355.807,0.116612
3373.731,0.121098
3391.846,0.117086
3410.156,0.11937
3428.663,0.120536
3447.371,0.117405
3466.283,0.115702
3485.403,0.116329
3504.734,0.119268
3524.28,0.118214
3544.043,0.1185158
3564.028,0.119958
3584.239,0.1214874
3604.679,0.122177
3625.353,0.123545
3646.263,0.1243613
3667.416,0.125878
3688.814,0.127104
3710.461,0.128923
3732.364,0.1307
3754.525,0.132174
3776.95,0.133304
3799.643,0.134224
3822.609,0.135041
3845.853,0.135782
3869.38,0.13635
3893.196,0.136643
3917.305,0.13733
3941.714,0.1380066
3966.427,0.139001
3991.451,0.139563
4016.791,0.139804
4042.454,0.14109
4068.446,0.14295
4094.773,0.144726
4121.441,0.146299
4148.457,0.148322
4175.829,0.150729
4203.563,0.183922
4231.666,0.01025
4260.146,0.2642827
4289.011,0.393419
4318.268,0.238067
4347.926,0.185156
4377.992,0.175283
4408.476,0.178556
4439.386,0.180797
4470.73,0.183536
4502.519,0.185872
4534.762,0.188346
4567.468,0.19123
4600.648,0.193893
4634.312,0.197657
4668.471,0.201424
4703.135,0.20533
4738.316,0.209567
4774.026,0.2135369
4810.277,0.216807
4847.081,0.220797
4884.451,0.221579
4922.399,0.224022
4960.941,0.228761
5000.088,0.2329348
5039.857,0.237643
5080.262,0.243791
5121.318,0.2470143
5163.041,0.252173
5205.448,0.26298
5248.555,0.264306
5292.381,0.274704
5336.942,0.279905
5382.259,0.2910528
5428.349,0.357031
5475.234,0.0148543
5522.934,0.1240515
5571.47,0.01666983
5620.865,0.04543157
5671.142,0.0690433
5722.324,0.08641705
5774.436,0.100808
5827.503,0.1144343
5881.553,0.126485
5936.613,0.138296
5992.711,0.1493457
6049.878,0.154452
6108.143,0.163949
6167.539,0.174003
6228.099,0.189414
6289.858,0.203014
6352.851,0.215302
6417.116,0.228087
6482.693,0.242848
6549.621,0.259412
6617.943,0.27701
6687.702,0.286881
6758.945,0.300364
6831.72,0.311657
6906.076,0.324169
6982.066,0.3400043
7059.743,0.356277
7139.166,0.37432
7220.393,0.392858
7303.487,0.412907
7388.512,0.429701
7475.537,0.449578
7564.633,0.466698
7655.876,0.483669
7749.343,0.501139
7845.117,0.518062
7943.285,0.53529
8043.937,0.554194
8147.169,0.570159
8253.082,0.583515
8361.781,0.5961878
8473.377,0.608581
8587.989,0.622458
8705.739,0.636892
8826.76,0.650337
8951.188,0.663521
9079.17,0.673127
9210.86,0.680645
9346.423,0.696115
9486.031,0.707713
9629.868,0.718424
9778.129,0.731582
9931.022,0.7447955
10088.768,0.765338
10251.6,0.772493
10419.769,0.787667
10593.542,0.797675
10773.203,0.796466
10959.058,0.793862
11151.432,0.790671
11350.675,0.78744
11557.16,0.781937
11771.29,0.780458
11993.497,0.783934
12224.249,0.781507
12464.046,0.782707
12713.432,0.7852
12972.993,0.787491
13243.366,0.785473
13525.24,0.781869
13819.365,0.779438
14126.558,0.76736
14447.709,0.73964
14783.791,0.671492
15135.871,0.5290562
15505.12,0.290016
15892.824,0.1321328
15965.407,0.116777

File: FTIR_PLG_01.csv
Database of Origin,University of Winnipeg Spectrophotometer Facility
Sample Description,IR Reflectance spectra of plagioclase with a Bruker Vertex 70 FTIR. See Master Plagioclase in PSF database for additional info.
Date Added,2016-11-22 04:00:06.256403

Data ID,FTIR_PLG_01
Sample ID,PLG106
Mineral Name,Plagioclase
Grain Size,<45 um
Viewing Geometry,"i30, e0"
Resolution,7.71cm-1
Material Class,Tectosilicate

Wavelength
1670.16,0.55635
1676.64,0.55548
1683.18,0.55545
1689.76,0.55514
1696.39,0.55504
1703.08,0.55508
1709.82,0.55406
1716.62,0.5549
1723.46,0.55405
1730.37,0.5539
1737.33,0.55377
1744.34,0.55295
1751.41,0.55371
1758.54,0.55277
1765.73,0.55239
1772.98,0.55187
1780.28,0.55099
1787.65,0.55124
1795.08,0.55102
1802.57,0.55111
1810.12,0.55163
1817.73,0.553
1825.42,0.55348
1833.16,0.5548
1840.97,0.5572
1848.85,0.55512
1856.8,0.55368
1864.81,0.54993
1872.9,0.55649
1881.05,0.54428
1889.28,0.54378
1897.58,0.54362
1905.95,0.54308
1914.39,0.53848
1922.92,0.53583
1931.51,0.53222
1940.19,0.53115
1948.94,0.52971
1957.77,0.52863
1966.68,0.52684
1975.68,0.52592
1984.76,0.52455
1993.92,0.52327
2003.16,0.52222
2012.49,0.52104
2021.91,0.5197
2031.42,0.51819
2041.02,0.51681
2050.7,0.51437
2060.48,0.51324
2070.36,0.51057
2080.33,0.5088
2090.4,0.50753
2100.56,0.50523
2110.82,0.50329
2121.19,0.50133
2131.65,0.49916
2142.22,0.49703
2152.9,0.49459
2163.68,0.49285
2174.57,0.49004
2185.57,0.48811
2196.69,0.48606
2207.91,0.48437
2219.26,0.4823
2230.71,0.48022
2242.29,0.47836
2253.99,0.4766
2265.813,0.47475
2277.76,0.47197
2289.83,0.46656
2302.03,0.46472
2314.37,0.4599
2326.83,0.46565
2339.43,0.4679
2352.17,0.46797
2365.05,0.46849
2378.06,0.46704
2391.23,0.4668
2404.54,0.47003
2417.99,0.4716
2431.6,0.47284
2445.37,0.47444
2459.29,0.47627
2473.37,0.47872
2487.61,0.4829
2502.02,0.48564
2516.59,0.48963
2531.34,0.49606
2546.26,0.50393
2561.35,0.51532
2576.63,0.52397
2592.09,0.53612
2607.74,0.54117
2623.57,0.53733
2639.6,0.52308
2655.83,0.53294
2672.26,0.55526
2688.89,0.50718
2705.73,0.44919
2722.78,0.36495
2740.05,0.38511
2757.54,0.36471
2775.26,0.34387
2793.2,0.33324
2811.38,0.33214
2829.79,0.32774
2848.45,0.3223
2867.36,0.31713
2886.51,0.31223
2905.93,0.31037
2925.61,0.30761
2945.56,0.30754
2965.78,0.3082
2986.28,0.31121
3007.07,0.31613
3028.14,0.32034
3049.52,0.32443
3071.2,0.32776
3093.19,0.33176
3115.49,0.33773
3138.12,0.34423
3161.09,0.35154
3184.39,0.35915
3208.03,0.36701
3232.03,0.37373
3256.39,0.38013
3281.13,0.38524
3306.24,0.38869
3331.74,0.38747
3357.63,0.37879
3383.93,0.37848
3410.64,0.37631
3437.79,0.38788
3465.36,0.39034
3493.38,0.39039
3521.86,0.41406
3550.81,0.43206
3580.23,0.43927
3610.15,0.44468
3640.58,0.44895
3671.52,0.45275
3702.99,0.45619
3735,0.45827
3767.57,0.45966
3800.72,0.45388
3834.45,0.4422
3868.79,0.43646
3903.75,0.43307
3939.35,0.41811
3975.6,0.39354
4012.52,0.42424
4050.14,0.45327
4088.47,0.46055
4127.53,0.46124
4167.35,0.46029
4207.94,0.47938
4249.33,0.49621
4291.54,0.48885
4334.6,0.45758
4378.53,0.44784
4423.36,0.44471
4469.12,0.43887
4515.84,0.42683
4563.54,0.40289
4612.26,0.37731
4662.03,0.35549
4712.89,0.32982
4764.87,0.30664
4818.01,0.28853
4872.35,0.26531
4927.93,0.25421
4984.79,0.24621
5042.98,0.2144
5102.54,0.21732
5163.53,0.25351
5225.99,0.26726
5289.98,0.26412
5355.56,0.27284
5422.78,0.29043
5491.72,0.31509
5562.43,0.30142
5634.98,0.32823
5709.45,0.3228
5785.92,0.29533
5864.46,0.27364
5945.16,0.22513
6028.12,0.17065
6113.42,0.15685
6201.17,0.16122
6291.48,0.14849
6384.46,0.13651
6480.23,0.11333
6578.91,0.10113
6680.64,0.08551
6785.58,0.07947
6893.86,0.0804
7005.65,0.08432
7121.13,0.08835
7240.48,0.09803
7363.89,0.11167
7491.59,0.10721
7623.79,0.09598
7760.75,0.07955
7902.71,0.06346
8049.97,0.04458
8202.82,0.03081
8361.58,0.02093
8526.61,0.0189
8698.29,0.03421
8877.02,0.06049
9063.25,0.05589
9257.46,0.05028
9460.18,0.0354
9671.98,0.02406
9893.47,0.02492
10125.4,0.0282
10368.4,0.05217
10623.3,0.05423
10891.1,0.05828
11172.8,0.05925
11469.4,0.05831
11782.2,0.05313
12112.6,0.06006
12462,0.07036
12832.1,0.07473
13224.9,0.07414
13642.6,0.06968
14087.4,0.04626
14562.3,0.0241
15070.3,0.01749
15615,0.015
16200.6,0.01754
16831.8,0.02783
17514.1,0.05684
18254.2,0.05848
19059.5,0.05304
19939.2,0.05561
20904,0.05998
21966.9,0.05378
23143.7,0.04803
24453.7,0.04855
25412.6,0.05756

File: FTIR_PLG_02.csv
Database of Origin,University of Winnipeg Spectrophotometer Facility
Sample Description,IR Reflectance spectra of plagioclase with a Bruker Vertex 70 FTIR. See Master Plagioclase in PSF database for additional info.
Date Added,2016-11-22 04:00:06.277792

Data ID,FTIR_PLG_02
Sample ID,PLG103
Mineral Name,Plagioclase
Grain Size,<45 um
Viewing Geometry,"i30, e0"
Resolution,7.71cm-1
Material Class,Tectosilicate

Wavelength
1670.16,0.52384
1676.64,0.52359
1683.18,0.52372
1689.76,0.52353
1696.39,0.52316
1703.08,0.52256
1709.82,0.5224
1716.62,0.52302
1723.46,0.52243
1730.37,0.52246
1737.33,0.52237
1744.34,0.52234
1751.41,0.522
1758.54,0.52129
1765.73,0.52153
1772.98,0.5218
1780.28,0.52078
1787.65,0.52101
1795.08,0.5211
1802.57,0.52126
1810.12,0.52179
1817.73,0.52286
1825.42,0.52268
1833.16,0.52422
1840.97,0.5252
1848.85,0.52471
1856.8,0.52465
1864.81,0.52318
1872.9,0.52657
1881.05,0.52044
1889.28,0.52025
1897.58,0.52049
1905.95,0.51915
1914.39,0.51696
1922.92,0.51663
1931.51,0.5157
1940.19,0.51533
1948.94,0.51536
1957.77,0.51503
1966.68,0.51528
1975.68,0.51523
1984.76,0.51501
1993.92,0.51557
2003.16,0.5161
2012.49,0.51556
2021.91,0.51526
2031.42,0.51576
2041.02,0.51596
2050.7,0.51487
2060.48,0.51545
2070.36,0.51526
2080.33,0.51525
2090.4,0.51533
2100.56,0.51505
2110.82,0.51503
2121.19,0.51446
2131.65,0.51464
2142.22,0.51436
2152.9,0.5139
2163.68,0.51315
2174.57,0.51214
2185.57,0.51031
2196.69,0.50869
2207.91,0.5096
2219.26,0.51102
2230.71,0.51141
2242.29,0.51115
2253.99,0.51128
2265.813,0.51127
2277.76,0.51078
2289.83,0.51111
2302.03,0.51037
2314.37,0.51018
2326.83,0.50944
2339.43,0.509
2352.17,0.50829
2365.05,0.50855
2378.06,0.50811
2391.23,0.50777
2404.54,0.50692
2417.99,0.50593
2431.6,0.50482
2445.37,0.50412
2459.29,0.50417
2473.37,0.50349
2487.61,0.50307
2502.02,0.50293
2516.59,0.50351
2531.34,0.50509
2546.26,0.5074
2561.35,0.51139
2576.63,0.51386
2592.09,0.51815
2607.74,0.5185
2623.57,0.51488
2639.6,0.50493
2655.83,0.50841
2672.26,0.51756
2688.89,0.48602
2705.73,0.44875
2722.78,0.40408
2740.05,0.35978
2757.54,0.33474
2775.26,0.33874
2793.2,0.33903
2811.38,0.33317
2829.79,0.32495
2848.45,0.31838
2867.36,0.3144
2886.51,0.31037
2905.93,0.30795
2925.61,0.30562
2945.56,0.30461
2965.78,0.30554
2986.28,0.30749
3007.07,0.31052
3028.14,0.31349
3049.52,0.31753
3071.2,0.32212
3093.19,0.32822
3115.49,0.33406
3138.12,0.34146
3161.09,0.34903
3184.39,0.35574
3208.03,0.36252
3232.03,0.3681
3256.39,0.37313
3281.13,0.37901
3306.24,0.38589
3331.74,0.39254
3357.63,0.39456
3383.93,0.39685
3410.64,0.39779
3437.79,0.4105
3465.36,0.41893
3493.38,0.42234
3521.86,0.43363
3550.81,0.44022
3580.23,0.44502
3610.15,0.44907
3640.58,0.45188
3671.52,0.45415
3702.99,0.45613
3735,0.45783
3767.57,0.45946
3800.72,0.46001
3834.45,0.45979
3868.79,0.46027
3903.75,0.46014
3939.35,0.45942
3975.6,0.45731
4012.52,0.45689
4050.14,0.45633
4088.47,0.45436
4127.53,0.45174
4167.35,0.44857
4207.94,0.46999
4249.33,0.48495
4291.54,0.46956
4334.6,0.42132
4378.53,0.40307
4423.36,0.39373
4469.12,0.38273
4515.84,0.36259
4563.54,0.34506
4612.26,0.32675
4662.03,0.30591
4712.89,0.2921
4764.87,0.27154
4818.01,0.28003
4872.35,0.26739
4927.93,0.26714
4984.79,0.24307
5042.98,0.23021
5102.54,0.21
5163.53,0.19117
5225.99,0.17868
5289.98,0.18286
5355.56,0.18332
5422.78,0.15794
5491.72,0.13426
5562.43,0.11218
5634.98,0.11024
5709.45,0.10416
5785.92,0.10975
5864.46,0.11284
5945.16,0.10833
6028.12,0.10293
6113.42,0.09655
6201.17,0.08755
6291.48,0.09053
6384.46,0.09868
6480.23,0.09444
6578.91,0.0837
6680.64,0.0755
6785.58,0.0681
6893.86,0.06014
7005.65,0.05223
7121.13,0.04219
7240.48,0.03044
7363.89,0.02211
7491.59,0.01622
7623.79,0.01149
7760.75,0.00991
7902.71,0.01327
8049.97,0.02453
8202.82,0.0467
8361.58,0.06198
8526.61,0.06287
8698.29,0.06136
8877.02,0.052
9063.25,0.04618
9257.46,0.0468
9460.18,0.05502
9671.98,0.07317
9893.47,0.0696
10125.4,0.06675
10368.4,0.05547
10623.3,0.06456
10891.1,0.07907
11172.8,0.09184
11469.4,0.09897
11782.2,0.09764
12112.6,0.08248
12462,0.04366
12832.1,0.03205
13224.9,0.03396
13642.6,0.03333
14087.4,0.04548
14562.3,0.04843
15070.3,0.04172
15615,0.03182
16200.6,0.03884
16831.8,0.04735
17514.1,0.04323
18254.2,0.04023
19059.5,0.04211
19939.2,0.04319
20904,0.03718
21966.9,0.03799
23143.7,0.05958
24453.7,0.05006
25412.6,0.04833

File: FTIR_PLG_03.csv
Database of Origin,University of Winnipeg Spectrophotometer Facility
Sample Description,IR Reflectance spectra of plagioclase with a Bruker Vertex 70 FTIR. See Master Plagioclase in PSF database for additional info.
Date Added,2016-11-22 04:00:06.290404

Data ID,FTIR_PLG_03
Sample ID,PLG108
Mineral Name,Plagioclase
Grain Size,<45 um
Viewing Geometry,"i30, e0"
Resolution,7.71cm-1
Material Class,Tectosilicate

Wavelength
1670.16,0.55572
1676.64,0.55495
1683.18,0.55645
1689.76,0.5547
1696.39,0.5544
1703.08,0.55532
1709.82,0.55482
1716.62,0.55516
1723.46,0.55465
1730.37,0.55491
1737.33,0.55463
1744.34,0.5547
1751.41,0.55438
1758.54,0.5547
1765.73,0.554
1772.98,0.55387
1780.28,0.55372
1787.65,0.55391
1795.08,0.55321
1802.57,0.5539
1810.12,0.55445
1817.73,0.55487
1825.42,0.55561
1833.16,0.55668
1840.97,0.55826
1848.85,0.55722
1856.8,0.55732
1864.81,0.55551
1872.9,0.55896
1881.05,0.55301
1889.28,0.55349
1897.58,0.55452
1905.95,0.55264
1914.39,0.5512
1922.92,0.55085
1931.51,0.54993
1940.19,0.54979
1948.94,0.54912
1957.77,0.54922
1966.68,0.54947
1975.68,0.54968
1984.76,0.54997
1993.92,0.54987
2003.16,0.55051
2012.49,0.55068
2021.91,0.55026
2031.42,0.55088
2041.02,0.55098
2050.7,0.5509
2060.48,0.55093
2070.36,0.551
2080.33,0.55122
2090.4,0.55086
2100.56,0.5513
2110.82,0.55136
2121.19,0.55091
2131.65,0.55075
2142.22,0.55117
2152.9,0.5504
2163.68,0.55023
2174.57,0.55001
2185.57,0.54973
2196.69,0.54927
2207.91,0.54882
2219.26,0.54903
2230.71,0.54818
2242.29,0.54828
2253.99,0.54743
2265.813,0.54716
2277.76,0.54728
2289.83,0.54655
2302.03,0.54588
2314.37,0.54461
2326.83,0.54466
2339.43,0.54464
2352.17,0.54455
2365.05,0.54541
2378.06,0.54505
2391.23,0.54481
2404.54,0.54435
2417.99,0.54386
2431.6,0.54337
2445.37,0.54251
2459.29,0.54219
2473.37,0.5412
2487.61,0.54105
2502.02,0.54018
2516.59,0.54018
2531.34,0.54135
2546.26,0.54299
2561.35,0.547
2576.63,0.54921
2592.09,0.55347
2607.74,0.55398
2623.57,0.55064
2639.6,0.54138
2655.83,0.54428
2672.26,0.55214
2688.89,0.52616
2705.73,0.49224
2722.78,0.44245
2740.05,0.40774
2757.54,0.38297
2775.26,0.37221
2793.2,0.35925
2811.38,0.35137
2829.79,0.34783
2848.45,0.34641
2867.36,0.34504
2886.51,0.34134
2905.93,0.33829
2925.61,0.33619
2945.56,0.33753
2965.78,0.34047
2986.28,0.346
3007.07,0.35337
3028.14,0.36074
3049.52,0.36703
3071.2,0.37216
3093.19,0.37887
3115.49,0.38517
3138.12,0.39372
3161.09,0.40095
3184.39,0.40922
3208.03,0.41704
3232.03,0.42473
3256.39,0.43151
3281.13,0.43804
3306.24,0.44383
3331.74,0.44853
3357.63,0.44981
3383.93,0.45537
3410.64,0.46017
3437.79,0.46671
3465.36,0.46799
3493.38,0.47164
3521.86,0.481
3550.81,0.48641
3580.23,0.49043
3610.15,0.49378
3640.58,0.49649
3671.52,0.4987
3702.99,0.5011
3735,0.50282
3767.57,0.50472
3800.72,0.50436
3834.45,0.50072
3868.79,0.49778
3903.75,0.49601
3939.35,0.49049
3975.6,0.47868
4012.52,0.48886
4050.14,0.49451
4088.47,0.49396
4127.53,0.49136
4167.35,0.48812
4207.94,0.50163
4249.33,0.50857
4291.54,0.49353
4334.6,0.45681
4378.53,0.44155
4423.36,0.43622
4469.12,0.43128
4515.84,0.42152
4563.54,0.40744
4612.26,0.39039
4662.03,0.37462
4712.89,0.36134
4764.87,0.34844
4818.01,0.3364
4872.35,0.32541
4927.93,0.31343
4984.79,0.29996
5042.98,0.28621
5102.54,0.27225
5163.53,0.25666
5225.99,0.24399
5289.98,0.22992
5355.56,0.2176
5422.78,0.20343
5491.72,0.19624
5562.43,0.19705
5634.98,0.19385
5709.45,0.18604
5785.92,0.17334
5864.46,0.15913
5945.16,0.14131
6028.12,0.12893
6113.42,0.12436
6201.17,0.12184
6291.48,0.12011
6384.46,0.12382
6480.23,0.12112
6578.91,0.11234
6680.64,0.09962
6785.58,0.09154
6893.86,0.08559
7005.65,0.08291
7121.13,0.08015
7240.48,0.07505
7363.89,0.06628
7491.59,0.05505
7623.79,0.04422
7760.75,0.03418
7902.71,0.02631
8049.97,0.02249
8202.82,0.02419
8361.58,0.03176
8526.61,0.03583
8698.29,0.03732
8877.02,0.0381
9063.25,0.03471
9257.46,0.03022
9460.18,0.03271
9671.98,0.0406
9893.47,0.04052
10125.4,0.04144
10368.4,0.04697
10623.3,0.05397
10891.1,0.05474
11172.8,0.05318
11469.4,0.05943
11782.2,0.06656
12112.6,0.07189
12462,0.05503
12832.1,0.03185
13224.9,0.02992
13642.6,0.03032
14087.4,0.03124
14562.3,0.02717
15070.3,0.02829
15615,0.03879
16200.6,0.03917
16831.8,0.04568
17514.1,0.04063
18254.2,0.04367
19059.5,0.04518
19939.2,0.04183
20904,0.03523
21966.9,0.03951
23143.7,0.03895
24453.7,0.03758
25412.6,0.05883