Folder: wwu_spec/csv_library (part 14)

File: FTIR_PYX_13.csv
Database of Origin,University of Winnipeg Spectrophotometer Facility
Sample Description,"HOSERLab master pyroxenes, FTIR data"
Date Added,2016-12-14 03:34:49.8963

Data ID,FTIR_PYX_13
Sample ID,PYX112
Mineral Name,Orthopyroxene
Grain Size,<45 um
Viewing Geometry,"i=30, e=0"
Material Class,Inosilicate

Wavelength
2000.56,0.344479
2006.983,0.345742
2013.447,0.347551
2019.952,0.350248
2026.499,0.351628
2033.087,0.353644
2039.718,0.355936
2046.391,0.358306
2053.107,0.36088
2059.867,0.362603
2066.671,0.365554
2073.519,0.369049
2080.412,0.371035
2087.35,0.374255
2094.334,0.3775492
2101.364,0.380001
2108.441,0.382757
2115.565,0.385101
2122.736,0.388891
2129.956,0.392639
2137.224,0.394885
2144.541,0.398811
2151.907,0.4012503
2159.324,0.404957
2166.791,0.408825
2174.309,0.41241
2181.879,0.415322
2189.501,0.419237
2197.175,0.422246
2204.903,0.426168
2212.685,0.429898
2220.521,0.432609
2228.412,0.43512
2236.359,0.436544
2244.361,0.438102
2252.421,0.4412502
2260.537,0.443808
2268.712,0.445731
2276.945,0.44781
2285.237,0.448858
2293.59,0.449467
2302.002,0.450276
2310.476,0.450089
2319.012,0.451699
2327.61,0.455995
2336.272,0.459556
2344.997,0.4629523
2353.787,0.465931
2362.643,0.467959
2371.564,0.468869
2380.553,0.469804
2389.609,0.470947
2398.733,0.4728638
2407.926,0.475114
2417.19,0.477307
2426.524,0.478077
2435.93,0.478911
2445.408,0.479945
2454.959,0.48103
2464.585,0.481995
2474.285,0.482851
2484.062,0.483505
2493.915,0.484197
2503.845,0.485244
2513.855,0.485874
2523.944,0.486902
2534.113,0.487035
2544.364,0.487416
2554.697,0.489118
2565.113,0.489407
2575.615,0.490238
2586.201,0.491297
2596.874,0.491453
2607.635,0.492395
2618.485,0.493642
2629.424,0.495276
2640.454,0.49476
2651.576,0.495958
2662.792,0.495783
2674.102,0.492441
2685.507,0.473404
2697.01,0.441699
2708.61,0.4144042
2720.31,0.322675
2732.111,0.275842
2744.013,0.259399
2756.019,0.2553957
2768.129,0.24923
2780.345,0.247711
2792.669,0.246106
2805.102,0.241948
2817.645,0.244307
2830.299,0.245487
2843.067,0.243757
2855.95,0.243269
2868.949,0.243019
2882.066,0.242266
2895.303,0.240601
2908.661,0.239123
2922.142,0.239937
2935.747,0.240074
2949.479,0.244077
2963.339,0.245936
2977.328,0.252252
2991.45,0.256524
3005.705,0.261148
3020.096,0.265505
3034.624,0.273773
3049.292,0.277214
3064.101,0.282197
3079.054,0.28577
3094.153,0.290265
3109.399,0.294345
3124.795,0.300043
3140.344,0.306355
3156.047,0.313634
3171.907,0.320309
3187.926,0.326376
3204.106,0.332438
3220.451,0.339691
3236.963,0.343263
3253.643,0.350274
3270.495,0.353828
3287.522,0.357765
3304.726,0.361875
3322.11,0.36626
3339.676,0.3696704
3357.429,0.372051
3375.37,0.37465
3393.502,0.3777535
3411.83,0.380193
3430.355,0.384564
3449.082,0.390311
3468.013,0.391931
3487.152,0.394502
3506.502,0.397204
3526.067,0.400664
3545.851,0.404008
3565.856,0.406307
3586.088,0.409302
3606.549,0.409959
3627.244,0.41222
3648.176,0.413604
3669.351,0.415179
3690.771,0.416694
3712.442,0.417745
3734.368,0.420486
3756.553,0.423173
3779.001,0.424494
3801.719,0.425372
3824.71,0.426861
3847.98,0.429016
3871.533,0.431432
3895.375,0.433871
3919.512,0.435478
3943.948,0.438098
3968.689,0.441479
3993.742,0.445479
4019.111,0.449498
4044.804,0.45256
4070.825,0.457164
4097.183,0.463466
4123.882,0.470069
4150.931,0.477073
4178.335,0.4847648
4206.102,0.508326
4234.24,0.5666017
4262.754,0.548469
4291.655,0.570901
4320.948,0.561015
4350.642,0.555262
4380.746,0.56334
4411.268,0.5783405
4442.217,0.591633
4473.602,0.6018176
4505.431,0.610641
4537.716,0.619112
4570.465,0.627602
4603.688,0.638089
4637.397,0.646049
4671.601,0.655301
4706.312,0.665005
4741.541,0.674948
4777.299,0.686654
4813.6,0.6962927
4850.455,0.702565
4887.876,0.709937
4925.878,0.7192842
4964.474,0.728352
5003.678,0.735393
5043.504,0.74331
5083.967,0.751545
5125.083,0.756691
5166.868,0.764338
5209.338,0.7800133
5252.51,0.785981
5296.401,0.799711
5341.031,0.810902
5386.417,0.814816
5432.579,0.826485
5479.537,0.843905
5527.312,0.876683
5575.925,0.652191
5625.399,0.80076
5675.757,0.8212065
5727.022,0.839456
5779.22,0.855125
5832.376,0.870124
5886.517,0.8873153
5941.67,0.890265
5997.864,0.889863
6055.129,0.903035
6113.495,0.908072
6172.996,0.912309
6233.663,0.91538
6295.533,0.919641
6358.64,0.930002
6423.023,0.936077
6488.721,0.943055
6555.774,0.945759
6624.224,0.953829
6694.117,0.953899
6765.497,0.958925
6838.413,0.961937
6912.916,0.9642654
6989.057,0.968868
7066.891,0.973204
7146.475,0.977981
7227.869,0.980661
7311.135,0.984548
7396.34,0.9888174
7483.55,0.993004
7572.838,0.995644
7664.28,0.996987
7757.953,0.999617
7853.942,0.0100405
7952.331,0.0100836
8053.214,0.0101274
8156.686,0.0101597
8262.847,0.010199
8371.804,0.0102402
8483.67,0.0102698
8598.562,0.0102919
8716.604,0.0103138
8837.928,0.01034836
8962.673,0.0103804
9090.986,0.0103792
9223.022,0.0103533
9358.945,0.0103457
9498.929,0.0103599
9643.16,0.010369
9791.834,0.0103749
9945.159,0.0103755
10103.357,0.0103805
10266.663,0.010401
10435.331,0.0104135
10609.627,0.0104134
10789.839,0.01041393
10976.272,0.0104202
11169.256,0.0104235
11369.141,0.0104078
11576.304,0.0103838
11791.15,0.0103736
12014.114,0.0103774
12245.667,0.01037407
12486.313,0.0103594
12736.599,0.0103545
12997.116,0.0103657
13268.505,0.0103801
13551.461,0.0103745
13846.739,0.0103415
14155.163,0.0103232
14477.629,0.0103043
14815.121,0.0102749
15168.712,0.0101779
15539.583,0.962111
15929.033,0.805966
15965.407,0.780348

File: FTIR_PYX_14.csv
Database of Origin,University of Winnipeg Spectrophotometer Facility
Sample Description,"HOSERLab master pyroxenes, FTIR data"
Date Added,2016-12-14 03:34:49.9297

Data ID,FTIR_PYX_14
Sample ID,PYX112
Mineral Name,Orthopyroxene
Grain Size,45-90 um
Viewing Geometry,"i=30, e=0"
Material Class,Inosilicate

Wavelength
2000.56,0.14195
2006.983,0.1431832
2013.447,0.144563
2019.952,0.146023
2026.499,0.146826
2033.087,0.148793
2039.718,0.15107
2046.391,0.1525009
2053.107,0.154188
2059.867,0.156882
2066.671,0.1587
2073.519,0.160945
2080.412,0.163033
2087.35,0.1655472
2094.334,0.168662
2101.364,0.170877
2108.441,0.1727407
2115.565,0.174049
2122.736,0.177318
2129.956,0.181048
2137.224,0.1833347
2144.541,0.187055
2151.907,0.190514
2159.324,0.194136
2166.791,0.198138
2174.309,0.2018644
2181.879,0.205757
2189.501,0.209951
2197.175,0.213971
2204.903,0.217124
2212.685,0.221065
2220.521,0.225147
2228.412,0.227637
2236.359,0.231046
2244.361,0.23446
2252.421,0.237961
2260.537,0.24154
2268.712,0.24529
2276.945,0.248938
2285.237,0.2513276
2293.59,0.253974
2302.002,0.256674
2310.476,0.258526
2319.012,0.261483
2327.61,0.265197
2336.272,0.269297
2344.997,0.273022
2353.787,0.277178
2362.643,0.281054
2371.564,0.283521
2380.553,0.285683
2389.609,0.288211
2398.733,0.291314
2407.926,0.294815
2417.19,0.297553
2426.524,0.299907
2435.93,0.302066
2445.408,0.304083
2454.959,0.306202
2464.585,0.307933
2474.285,0.310253
2484.062,0.311966
2493.915,0.313344
2503.845,0.315053
2513.855,0.316487
2523.944,0.317688
2534.113,0.3197786
2544.364,0.321101
2554.697,0.322079
2565.113,0.323116
2575.615,0.324747
2586.201,0.326907
2596.874,0.327633
2607.635,0.327875
2618.485,0.330585
2629.424,0.331629
2640.454,0.329205
2651.576,0.3308944
2662.792,0.332182
2674.102,0.33111
2685.507,0.315356
2697.01,0.291935
2708.61,0.277992
2720.31,0.227469
2732.111,0.184317
2744.013,0.167223
2756.019,0.16414
2768.129,0.160039
2780.345,0.1615915
2792.669,0.160992
2805.102,0.155807
2817.645,0.157131
2830.299,0.158096
2843.067,0.15423
2855.95,0.153186
2868.949,0.155451
2882.066,0.155208
2895.303,0.154072
2908.661,0.152131
2922.142,0.152223
2935.747,0.152046
2949.479,0.156142
2963.339,0.156825
2977.328,0.161692
2991.45,0.163543
3005.705,0.165866
3020.096,0.167976
3034.624,0.173572
3049.292,0.174131
3064.101,0.177522
3079.054,0.178779
3094.153,0.180559
3109.399,0.18228
3124.795,0.1857546
3140.344,0.188891
3156.047,0.193212
3171.907,0.196849
3187.926,0.200264
3204.106,0.203771
3220.451,0.208628
3236.963,0.209257
3253.643,0.213979
3270.495,0.214597
3287.522,0.216108
3304.726,0.218121
3322.11,0.219598
3339.676,0.220563
3357.429,0.221153
3375.37,0.221888
3393.502,0.223242
3411.83,0.2245503
3430.355,0.226464
3449.082,0.229123
3468.013,0.22915
3487.152,0.229788
3506.502,0.230722
3526.067,0.23215
3545.851,0.233504
3565.856,0.2344933
3586.088,0.2365
3606.549,0.235721
3627.244,0.2367
3648.176,0.238082
3669.351,0.237894
3690.771,0.239632
3712.442,0.240306
3734.368,0.242189
3756.553,0.244952
3779.001,0.247032
3801.719,0.249251
3824.71,0.251533
3847.98,0.254488
3871.533,0.258061
3895.375,0.262077
3919.512,0.264848
3943.948,0.269026
3968.689,0.274989
3993.742,0.280115
4019.111,0.286111
4044.804,0.291698
4070.825,0.299494
4097.183,0.308394
4123.882,0.318106
4150.931,0.329413
4178.335,0.341229
4206.102,0.370444
4234.24,0.435375
4262.754,0.4216205
4291.655,0.449666
4320.948,0.44529
4350.642,0.443666
4380.746,0.457226
4411.268,0.477973
4442.217,0.496073
4473.602,0.510058
4505.431,0.522306
4537.716,0.53396
4570.465,0.546742
4603.688,0.560687
4637.397,0.572359
4671.601,0.586119
4706.312,0.599777
4741.541,0.6140924
4777.299,0.629257
4813.6,0.642302
4850.455,0.65211
4887.876,0.661797
4925.878,0.6738695
4964.474,0.685619
5003.678,0.695112
5043.504,0.705482
5083.967,0.717274
5125.083,0.725292
5166.868,0.7362648
5209.338,0.754764
5252.51,0.761109
5296.401,0.776332
5341.031,0.788944
5386.417,0.7942073
5432.579,0.809255
5479.537,0.832284
5527.312,0.871453
5575.925,0.601114
5625.399,0.7711
5675.757,0.79861
5727.022,0.821401
5779.22,0.840217
5832.376,0.85879
5886.517,0.87907
5941.67,0.884225
5997.864,0.8852481
6055.129,0.899259
6113.495,0.904971
6172.996,0.908396
6233.663,0.910748
6295.533,0.915141
6358.64,0.926284
6423.023,0.932195
6488.721,0.939586
6555.774,0.943075
6624.224,0.952046
6694.117,0.95351
6765.497,0.959994
6838.413,0.963548
6912.916,0.966269
6989.057,0.971744
7066.891,0.9762784
7146.475,0.981071
7227.869,0.984143
7311.135,0.9884533
7396.34,0.993328
7483.55,0.9975089
7572.838,0.0100041
7664.28,0.0100182
7757.953,0.0100477
7853.942,0.0100911
7952.331,0.0101338
8053.214,0.0101777
8156.686,0.0102105
8262.847,0.0102466
8371.804,0.0102859
8483.67,0.0103135
8598.562,0.0103345
8716.604,0.010356
8837.928,0.0103869
8962.673,0.0104057
9090.986,0.0103981
9223.022,0.0103683
9358.945,0.0103601
9498.929,0.0103677
9643.16,0.0103837
9791.834,0.0103959
9945.159,0.0104023
10103.357,0.0103986
10266.663,0.0104145
10435.331,0.0104319
10609.627,0.0104362
10789.839,0.0104412
10976.272,0.0104541
11169.256,0.0104485
11369.141,0.0104339
11576.304,0.0104159
11791.15,0.010409
12014.114,0.0104178
12245.667,0.0104228
12486.313,0.0104042
12736.599,0.0103969
12997.116,0.0104034
13268.505,0.0104132
13551.461,0.0104035
13846.739,0.0103657
14155.163,0.0103452
14477.629,0.0103154
14815.121,0.0102753
15168.712,0.0101775
15539.583,0.955508
15929.033,0.7830006
15965.407,0.760668

File: FTIR_PYX_15.csv
Database of Origin,University of Winnipeg Spectrophotometer Facility
Sample Description,"HOSERLab master pyroxenes, FTIR data"
Date Added,2016-12-14 03:34:49.9683

Data ID,FTIR_PYX_15
Sample ID,PYX117
Mineral Name,Orthopyroxene
Grain Size,<45 um
Viewing Geometry,"i=30, e=0"
Material Class,Inosilicate

Wavelength
2000.56,0.368194
2006.983,0.371952
2013.447,0.37577
2019.952,0.37956
2026.499,0.382842
2033.087,0.386838
2039.718,0.3923089
2046.391,0.396804
2053.107,0.401519
2059.867,0.406952
2066.671,0.4124202
2073.519,0.418313
2080.412,0.423674
2087.35,0.4298917
2094.334,0.436144
2101.364,0.443376
2108.441,0.448704
2115.565,0.4552623
2122.736,0.4628745
2129.956,0.469495
2137.224,0.477068
2144.541,0.485024
2151.907,0.492203
2159.324,0.499114
2166.791,0.507095
2174.309,0.514587
2181.879,0.522617
2189.501,0.531529
2197.175,0.539943
2204.903,0.5481882
2212.685,0.556637
2220.521,0.564145
2228.412,0.571294
2236.359,0.5779502
2244.361,0.5844
2252.421,0.591403
2260.537,0.598945
2268.712,0.605867
2276.945,0.61369
2285.237,0.620127
2293.59,0.626684
2302.002,0.633205
2310.476,0.640281
2319.012,0.646109
2327.61,0.652511
2336.272,0.6585957
2344.997,0.664214
2353.787,0.670302
2362.643,0.6754825
2371.564,0.679586
2380.553,0.684423
2389.609,0.6889189
2398.733,0.693032
2407.926,0.69683
2417.19,0.700235
2426.524,0.703715
2435.93,0.70648
2445.408,0.709536
2454.959,0.711242
2464.585,0.7143
2474.285,0.715977
2484.062,0.71785
2493.915,0.719362
2503.845,0.720993
2513.855,0.722486
2523.944,0.723041
2534.113,0.722642
2544.364,0.722552
2554.697,0.724384
2565.113,0.720859
2575.615,0.721645
2586.201,0.719667
2596.874,0.717386
2607.635,0.718709
2618.485,0.717829
2629.424,0.719995
2640.454,0.723719
2651.576,0.72315
2662.792,0.719365
2674.102,0.715735
2685.507,0.715693
2697.01,0.715142
2708.61,0.710037
2720.31,0.692327
2732.111,0.676285
2744.013,0.651209
2756.019,0.628858
2768.129,0.60577
2780.345,0.583482
2792.669,0.560908
2805.102,0.518528
2817.645,0.510037
2830.299,0.513937
2843.067,0.466278
2855.95,0.466727
2868.949,0.507376
2882.066,0.515545
2895.303,0.512429
2908.661,0.500368
2922.142,0.482996
2935.747,0.478474
2949.479,0.487422
2963.339,0.4923746
2977.328,0.494528
2991.45,0.493121
3005.705,0.491862
3020.096,0.490848
3034.624,0.49244
3049.292,0.490507
3064.101,0.489801
3079.054,0.487769
3094.153,0.486117
3109.399,0.484815
3124.795,0.486706
3140.344,0.489752
3156.047,0.493308
3171.907,0.4956889
3187.926,0.497002
3204.106,0.497868
3220.451,0.498786
3236.963,0.497909
3253.643,0.49915
3270.495,0.499393
3287.522,0.50162
3304.726,0.5039721
3322.11,0.506667
3339.676,0.508812
3357.429,0.508685
3375.37,0.499706
3393.502,0.500816
3411.83,0.485014
3430.355,0.492782
3449.082,0.505804
3468.013,0.510635
3487.152,0.508515
3506.502,0.501732
3526.067,0.51749
3545.851,0.520374
3565.856,0.5210543
3586.088,0.521516
3606.549,0.520261
3627.244,0.520522
3648.176,0.520215
3669.351,0.519036
3690.771,0.518627
3712.442,0.517916
3734.368,0.5179
3756.553,0.518238
3779.001,0.517925
3801.719,0.5176153
3824.71,0.516877
3847.98,0.516765
3871.533,0.517184
3895.375,0.518321
3919.512,0.5190568
3943.948,0.519611
3968.689,0.521817
3993.742,0.523506
4019.111,0.5247021
4044.804,0.526371
4070.825,0.529162
4097.183,0.532444
4123.882,0.5361913
4150.931,0.540886
4178.335,0.54548
4206.102,0.56254
4234.24,0.60906
4262.754,0.59416
4291.655,0.612827
4320.948,0.604261
4350.642,0.599972
4380.746,0.606677
4411.268,0.619129
4442.217,0.630165
4473.602,0.638961
4505.431,0.646161
4537.716,0.652181
4570.465,0.658761
4603.688,0.664996
4637.397,0.66712
4671.601,0.670884
4706.312,0.676419
4741.541,0.6840225
4777.299,0.692307
4813.6,0.69737
4850.455,0.701468
4887.876,0.70835
4925.878,0.716917
4964.474,0.72489
5003.678,0.73136
5043.504,0.73722
5083.967,0.742515
5125.083,0.745267
5166.868,0.7518982
5209.338,0.77019
5252.51,0.7789356
5296.401,0.79511
5341.031,0.807853
5386.417,0.810541
5432.579,0.820747
5479.537,0.8393801
5527.312,0.873407
5575.925,0.656565
5625.399,0.794585
5675.757,0.811594
5727.022,0.8291248
5779.22,0.842154
5832.376,0.856237
5886.517,0.872418
5941.67,0.873644
5997.864,0.871796
6055.129,0.885828
6113.495,0.8899707
6172.996,0.8923271
6233.663,0.8934
6295.533,0.896914
6358.64,0.908729
6423.023,0.917127
6488.721,0.924868
6555.774,0.9268532
6624.224,0.935516
6694.117,0.933853
6765.497,0.939013
6838.413,0.94204
6912.916,0.94223
6989.057,0.946763
7066.891,0.950486
7146.475,0.955834
7227.869,0.956495
7311.135,0.960073
7396.34,0.963272
7483.55,0.96648
7572.838,0.968499
7664.28,0.968911
7757.953,0.970914
7853.942,0.9741286
7952.331,0.977246
8053.214,0.9799433
8156.686,0.981442
8262.847,0.983716
8371.804,0.986647
8483.67,0.988789
8598.562,0.9911699
8716.604,0.995313
8837.928,0.0100084
8962.673,0.0100539
9090.986,0.0100536
9223.022,0.0100311
9358.945,0.0100273
9498.929,0.0100508
9643.16,0.0100583
9791.834,0.0100637
9945.159,0.0100592
10103.357,0.0100699
10266.663,0.0101018
10435.331,0.0101205
10609.627,0.0101253
10789.839,0.0101289
10976.272,0.0101314
11169.256,0.01013565
11369.141,0.0101296
11576.304,0.0101138
11791.15,0.0101103
12014.114,0.0101239
12245.667,0.0101236
12486.313,0.0101073
12736.599,0.0100956
12997.116,0.0101064
13268.505,0.01012522
13551.461,0.0101204
13846.739,0.0100861
14155.163,0.0100726
14477.629,0.0100595
14815.121,0.0100182
15168.712,0.986883
15539.583,0.918588
15929.033,0.779318
15965.407,0.766554

File: FTIR_PYX_16.csv
Database of Origin,University of Winnipeg Spectrophotometer Facility
Sample Description,"HOSERLab master pyroxenes, FTIR data"
Date Added,2016-12-14 03:34:50.0019

Data ID,FTIR_PYX_16
Sample ID,PYX119
Mineral Name,Orthopyroxene
Grain Size,<45 um
Viewing Geometry,"i=30, e=0"
Material Class,Inosilicate

Wavelength
2000.56,0.343614
2006.983,0.344408
2013.447,0.346045
2019.952,0.347188
2026.499,0.348546
2033.087,0.350031
2039.718,0.351082
2046.391,0.352459
2053.107,0.35341
2059.867,0.354543
2066.671,0.355438
2073.519,0.357074
2080.412,0.358396
2087.35,0.360228
2094.334,0.361539
2101.364,0.36239
2108.441,0.362305
2115.565,0.362711
2122.736,0.36451
2129.956,0.365561
2137.224,0.3668487
2144.541,0.368294
2151.907,0.369386
2159.324,0.371256
2166.791,0.372972
2174.309,0.373815
2181.879,0.374741
2189.501,0.377194
2197.175,0.3783614
2204.903,0.379502
2212.685,0.380766
2220.521,0.381605
2228.412,0.381822
2236.359,0.381212
2244.361,0.3802302
2252.421,0.381631
2260.537,0.382862
2268.712,0.381897
2276.945,0.382564
2285.237,0.382498
2293.59,0.381535
2302.002,0.381059
2310.476,0.379942
2319.012,0.378963
2327.61,0.380898
2336.272,0.383505
2344.997,0.388245
2353.787,0.391451
2362.643,0.392341
2371.564,0.391468
2380.553,0.391496
2389.609,0.393347
2398.733,0.3959096
2407.926,0.398448
2417.19,0.400206
2426.524,0.4012742
2435.93,0.402566
2445.408,0.403455
2454.959,0.405145
2464.585,0.406815
2474.285,0.407944
2484.062,0.408518
2493.915,0.408962
2503.845,0.409774
2513.855,0.411141
2523.944,0.4126584
2534.113,0.413546
2544.364,0.414986
2554.697,0.416408
2565.113,0.417057
2575.615,0.418411
2586.201,0.42016
2596.874,0.421658
2607.635,0.422169
2618.485,0.424324
2629.424,0.425914
2640.454,0.423867
2651.576,0.424614
2662.792,0.423181
2674.102,0.413481
2685.507,0.354304
2697.01,0.28028
2708.61,0.229179
2720.31,0.21537
2732.111,0.1985286
2744.013,0.197603
2756.019,0.2019771
2768.129,0.2052145
2780.345,0.208095
2792.669,0.208946
2805.102,0.206287
2817.645,0.2081776
2830.299,0.208859
2843.067,0.20918
2855.95,0.210111
2868.949,0.210937
2882.066,0.211429
2895.303,0.210986
2908.661,0.210719
2922.142,0.210363
2935.747,0.210243
2949.479,0.212009
2963.339,0.211635
2977.328,0.214904
2991.45,0.216335
3005.705,0.218852
3020.096,0.221299
3034.624,0.22663
3049.292,0.227573
3064.101,0.2314599
3079.054,0.233835
3094.153,0.236472
3109.399,0.2390125
3124.795,0.242682
3140.344,0.246806
3156.047,0.251305
3171.907,0.256232
3187.926,0.261107
3204.106,0.266165
3220.451,0.272819
3236.963,0.275901
3253.643,0.2829734
3270.495,0.285998
3287.522,0.291018
3304.726,0.295747
3322.11,0.299653
3339.676,0.303136
3357.429,0.306564
3375.37,0.308991
3393.502,0.313434
3411.83,0.3167
3430.355,0.322498
3449.082,0.330118
3468.013,0.334852
3487.152,0.338896
3506.502,0.343363
3526.067,0.35076
3545.851,0.3564246
3565.856,0.3608872
3586.088,0.365636
3606.549,0.3688124
3627.244,0.3738904
3648.176,0.379054
3669.351,0.383271
3690.771,0.387788
3712.442,0.391549
3734.368,0.39637
3756.553,0.401787
3779.001,0.405073
3801.719,0.4091428
3824.71,0.413269
3847.98,0.418266
3871.533,0.423277
3895.375,0.427926
3919.512,0.432512
3943.948,0.436321
3968.689,0.441576
3993.742,0.447956
4019.111,0.45344
4044.804,0.459246
4070.825,0.464996
4097.183,0.4718
4123.882,0.478932
4150.931,0.4865019
4178.335,0.494423
4206.102,0.516919
4234.24,0.57182
4262.754,0.556165
4291.655,0.578036
4320.948,0.570055
4350.642,0.566253
4380.746,0.574176
4411.268,0.588973
4442.217,0.602139
4473.602,0.6124816
4505.431,0.621155
4537.716,0.6284165
4570.465,0.6367692
4603.688,0.645455
4637.397,0.651265
4671.601,0.660232
4706.312,0.670553
4741.541,0.680309
4777.299,0.690163
4813.6,0.698844
4850.455,0.706619
4887.876,0.715046
4925.878,0.723836
4964.474,0.733253
5003.678,0.740808
5043.504,0.748024
5083.967,0.756603
5125.083,0.762098
5166.868,0.771906
5209.338,0.789816
5252.51,0.796052
5296.401,0.809192
5341.031,0.819247
5386.417,0.822845
5432.579,0.83476
5479.537,0.862983
5527.312,0.938576
5575.925,0.555934
5625.399,0.740645
5675.757,0.780933
5727.022,0.806543
5779.22,0.827104
5832.376,0.8444226
5886.517,0.862647
5941.67,0.869537
5997.864,0.870681
6055.129,0.881843
6113.495,0.888858
6172.996,0.894745
6233.663,0.902216
6295.533,0.908615
6358.64,0.919664
6423.023,0.925398
6488.721,0.932249
6555.774,0.937064
6624.224,0.94513
6694.117,0.946991
6765.497,0.953237
6838.413,0.956781
6912.916,0.958638
6989.057,0.963823
7066.891,0.968805
7146.475,0.973795
7227.869,0.976905
7311.135,0.981372
7396.34,0.986014
7483.55,0.990141
7572.838,0.99304
7664.28,0.9942784
7757.953,0.997466
7853.942,0.0100152
7952.331,0.010062
8053.214,0.0101047
8156.686,0.0101383
8262.847,0.0101746
8371.804,0.0102148
8483.67,0.0102458
8598.562,0.0102681
8716.604,0.0102933
8837.928,0.0103275
8962.673,0.0103624
9090.986,0.0103607
9223.022,0.0103372
9358.945,0.0103287
9498.929,0.0103469
9643.16,0.0103637
9791.834,0.0103678
9945.159,0.0103634
10103.357,0.0103676
10266.663,0.0103906
10435.331,0.010401
10609.627,0.0104031
10789.839,0.0104014
10976.272,0.0104107
11169.256,0.0104184
11369.141,0.0104056
11576.304,0.0103841
11791.15,0.0103759
12014.114,0.0103829
12245.667,0.0103756
12486.313,0.0103617
12736.599,0.010351
12997.116,0.0103617
13268.505,0.01037753
13551.461,0.0103789
13846.739,0.0103465
14155.163,0.0103287
14477.629,0.0103018
14815.121,0.010275
15168.712,0.010157
15539.583,0.951472
15929.033,0.775646
15965.407,0.753996