Folder: wwu_spec/csv_library (part 4)

File: FTIR_CLAY_08.csv
Database of Origin,University of Winnipeg Spectrophotometer Facility
Sample Description,See Master Clays in HOSERLab database
Date Added,2016-12-11 20:56:55.233

Data ID,FTIR_CLAY_08
Sample ID,HIS001
Mineral Name,Hisingerite
Grain Size,<45 m
Viewing Geometry,35/0
Resolution,11-72 nm
Material Class,Phyllosilicate

Wavelength
2001.142,0.39713
2008.155,0.400258
2015.217,0.403092
2022.328,0.406268
2029.488,0.408617
2036.698,0.411746
2043.959,0.41401
2051.271,0.415558
2058.635,0.41698
2066.051,0.418535
2073.519,0.4200169
2081.041,0.420732
2088.617,0.421804
2096.247,0.423101
2103.932,0.424621
2111.673,0.425969
2119.471,0.427036
2127.325,0.426653
2135.237,0.426888
2143.207,0.426538
2151.235,0.4265
2159.324,0.424441
2167.472,0.424658
2175.682,0.423791
2183.952,0.42298
2192.285,0.4210821
2200.682,0.41967
2209.141,0.418673
2217.665,0.417045
2226.254,0.415868
2234.91,0.413668
2243.631,0.411518
2252.421,0.40761
2261.278,0.404135
2270.204,0.39733
2279.201,0.3906811
2288.268,0.384198
2297.406,0.380525
2306.617,0.378011
2315.901,0.378907
2325.259,0.381274
2334.692,0.381409
2344.201,0.380426
2353.787,0.377295
2363.451,0.373751
2373.194,0.368286
2383.016,0.363262
2392.919,0.358731
2402.903,0.355278
2412.971,0.350979
2423.122,0.347058
2433.358,0.342265
2443.679,0.336877
2454.088,0.331296
2464.585,0.325464
2475.171,0.3203034
2485.847,0.315325
2496.615,0.311581
2507.476,0.307669
2518.431,0.305546
2529.48,0.304428
2540.627,0.304289
2551.87,0.305905
2563.213,0.310429
2574.656,0.307262
2586.201,0.305611
2597.849,0.30082
2609.601,0.29668
2621.459,0.2921323
2633.424,0.284807
2645.498,0.273767
2657.682,0.261748
2669.978,0.259231
2682.387,0.225269
2694.911,0.192818
2707.552,0.1508397
2720.31,0.131376
2733.188,0.07151784
2746.188,0.04039403
2759.311,0.03158207
2772.559,0.02828417
2785.934,0.02618411
2799.437,0.02287199
2813.071,0.0218948
2826.837,0.02119833
2840.737,0.020392
2854.774,0.01918864
2868.949,0.01887227
2883.265,0.01777003
2897.723,0.01730428
2912.325,0.01678314
2927.075,0.01644492
2941.973,0.01674548
2957.023,0.01696909
2972.226,0.01653084
2987.586,0.01630512
3003.103,0.01713986
3018.782,0.01710163
3034.624,0.01928707
3050.632,0.0186024
3066.809,0.02019615
3083.157,0.02007867
3099.679,0.02198151
3116.378,0.02221144
3133.257,0.02317111
3150.319,0.02505942
3167.566,0.02702144
3185.001,0.03066736
3202.629,0.03261113
3220.451,0.03822007
3238.472,0.03884758
3256.694,0.04527982
3275.122,0.04591172
3293.757,0.05108185
3312.605,0.05417233
3331.669,0.06154248
3350.952,0.06390604
3370.458,0.06773494
3390.191,0.07143694
3410.156,0.07735763
3430.355,0.08322329
3450.794,0.0915297
3471.477,0.09771537
3492.408,0.1053617
3513.592,0.110424
3535.032,0.121484
3556.735,0.127801
3578.704,0.136352
3600.946,0.144891
3623.463,0.151898
3646.263,0.159322
3669.351,0.167704
3692.731,0.1760242
3716.409,0.184249
3740.392,0.192389
3764.685,0.20002
3789.294,0.208289
3814.225,0.215783
3839.486,0.222862
3865.081,0.229789
3891.019,0.236883
3917.305,0.243843
3943.948,0.250489
3970.954,0.257005
3998.33,0.26269
4026.086,0.267434
4054.228,0.272488
4082.764,0.278216
4111.703,0.285558
4141.054,0.293797
4170.826,0.302792
4201.026,0.322612
4231.666,0.4166695
4262.754,0.3833117
4294.301,0.410936
4326.317,0.385446
4358.811,0.374763
4391.796,0.382858
4425.282,0.395664
4459.281,0.406651
4493.805,0.416135
4528.865,0.425637
4564.475,0.435802
4600.648,0.446294
4637.397,0.457256
4674.735,0.468659
4712.678,0.480936
4751.24,0.492396
4790.436,0.506037
4830.283,0.515782
4870.795,0.526814
4911.991,0.537592
4953.888,0.550626
4996.504,0.558062
5039.857,0.567646
5083.967,0.581956
5128.854,0.5871528
5174.538,0.595734
5221.041,0.609684
5268.386,0.615028
5316.595,0.622626
5365.692,0.6352335
5415.701,0.6637008
5466.65,0.694477
5518.564,0.746632
5571.47,0.642371
5625.399,0.523042
5680.379,0.579825
5736.443,0.607409
5793.621,0.610919
5851.948,0.632063
5911.459,0.640924
5972.19,0.667825
6034.179,0.674023
6097.466,0.678225
6162.091,0.689574
6228.099,0.691978
6295.533,0.700313
6364.44,0.72784
6434.869,0.740355
6506.872,0.758693
6580.501,0.782268
6655.812,0.766036
6732.864,0.764437
6811.718,0.773317
6892.437,0.775816
6975.089,0.781976
7059.743,0.787479
7146.475,0.8032161
7235.36,0.799322
7326.481,0.814612
7419.922,0.812246
7515.774,0.818906
7614.131,0.826915
7715.093,0.831037
7818.764,0.834877
7925.254,0.8413268
8034.682,0.845941
8147.169,0.850426
8262.847,0.852418
8381.852,0.8554723
8504.331,0.8580568
8630.437,0.860777
8760.335,0.863267
8894.198,0.866107
9032.21,0.86827
9174.568,0.869066
9321.48,0.869854
9473.167,0.871961
9629.868,0.875173
9791.834,0.8788409
9959.336,0.881984
10132.662,0.884612
10312.121,0.887115
10498.045,0.8896245
10690.79,0.891011
10890.738,0.8898262
11098.301,0.88821
11313.921,0.8883019
11538.079,0.890172
11771.29,0.891207
12014.114,0.8920125
12267.16,0.89098
12531.086,0.8915934
12806.608,0.8914694
13094.51,0.891201
13395.644,0.890357
13710.943,0.890162
14041.433,0.886167
14388.237,0.875042
14752.594,0.846368
15135.871,0.769741
15539.583,0.560355
15965.407,0.336431

File: FTIR_CLAY_09.csv
Database of Origin,University of Winnipeg Spectrophotometer Facility
Sample Description,See Master Clays in HOSERLab database
Date Added,2016-12-11 20:56:55.2618

Data ID,FTIR_CLAY_09
Sample ID,KAO101
Mineral Name,Kaolinite
Grain Size,<45 m
Viewing Geometry,35/0
Resolution,11-72 nm
Material Class,Phyllosilicate

Wavelength
2001.142,0.446917
2008.155,0.447531
2015.217,0.449529
2022.328,0.450385
2029.488,0.450335
2036.698,0.451479
2043.959,0.450846
2051.271,0.450925
2058.635,0.449566
2066.051,0.447196
2073.519,0.444265
2081.041,0.440747
2088.617,0.438355
2096.247,0.436841
2103.932,0.434815
2111.673,0.426843
2119.471,0.427018
2127.325,0.420949
2135.237,0.409403
2143.207,0.383028
2151.235,0.349258
2159.324,0.334485
2167.472,0.339395
2175.682,0.345966
2183.952,0.342074
2192.285,0.326148
2200.682,0.307362
2209.141,0.276708
2217.665,0.370572
2226.254,0.392832
2234.91,0.3935176
2243.631,0.393305
2252.421,0.39417
2261.278,0.389749
2270.204,0.384199
2279.201,0.376534
2288.268,0.370011
2297.406,0.364711
2306.617,0.35429
2315.901,0.346932
2325.259,0.3441733
2334.692,0.348645
2344.201,0.342186
2353.787,0.331491
2363.451,0.331373
2373.194,0.323148
2383.016,0.312075
2392.919,0.3210433
2402.903,0.32858
2412.971,0.325249
2423.122,0.317709
2433.358,0.30513
2443.679,0.293575
2454.088,0.287474
2464.585,0.284301
2475.171,0.279424
2485.847,0.268935
2496.615,0.265712
2507.476,0.262261
2518.431,0.258587
2529.48,0.255864
2540.627,0.251915
2551.87,0.25055
2563.213,0.252114
2574.656,0.245309
2586.201,0.245222
2597.849,0.239158
2609.601,0.233277
2621.459,0.226789
2633.424,0.213751
2645.498,0.19354
2657.682,0.1723567
2669.978,0.154196
2682.387,0.101045
2694.911,0.06849318
2707.552,0.04855057
2720.31,0.05223731
2733.188,0.03245496
2746.188,0.02809395
2759.311,0.01931525
2772.559,0.03605024
2785.934,0.04304149
2799.437,0.04500467
2813.071,0.0450645
2826.837,0.04393493
2840.737,0.04481428
2854.774,0.04436719
2868.949,0.04422026
2883.265,0.04357108
2897.723,0.04207309
2912.325,0.03986879
2927.075,0.04269802
2941.973,0.04425012
2957.023,0.04680755
2972.226,0.04701455
2987.586,0.04892921
3003.103,0.05286984
3018.782,0.05451851
3034.624,0.06074133
3050.632,0.05974684
3066.809,0.06442949
3083.157,0.06525975
3099.679,0.06838298
3116.378,0.07051424
3133.257,0.07388924
3150.319,0.07856487
3167.566,0.0836408
3185.001,0.09054727
3202.629,0.09592866
3220.451,0.105139
3238.472,0.108495
3256.694,0.118066
3275.122,0.1209973
3293.757,0.128979
3312.605,0.134448
3331.669,0.144156
3350.952,0.1476
3370.458,0.147723
3390.191,0.154008
3410.156,0.156855
3430.355,0.167221
3450.794,0.180026
3471.477,0.18569
3492.408,0.191562
3513.592,0.1972106
3535.032,0.2134894
3556.735,0.2195339
3578.704,0.226899
3600.946,0.233832
3623.463,0.239703
3646.263,0.2459055
3669.351,0.249542
3692.731,0.247947
3716.409,0.257976
3740.392,0.267014
3764.685,0.274202
3789.294,0.27915
3814.225,0.283797
3839.486,0.287619
3865.081,0.291449
3891.019,0.295441
3917.305,0.298921
3943.948,0.3017029
3970.954,0.305171
3998.33,0.308876
4026.086,0.310897
4054.228,0.313502
4082.764,0.315891
4111.703,0.318237
4141.054,0.321083
4170.826,0.324891
4201.026,0.337952
4231.666,0.402202
4262.754,0.3799876
4294.301,0.397093
4326.317,0.377616
4358.811,0.367418
4391.796,0.3706888
4425.282,0.3789389
4459.281,0.385563
4493.805,0.391682
4528.865,0.400909
4564.475,0.408561
4600.648,0.4131526
4637.397,0.415902
4674.735,0.422772
4712.678,0.4344223
4751.24,0.446568
4790.436,0.456588
4830.283,0.462673
4870.795,0.469188
4911.991,0.476735
4953.888,0.487754
4996.504,0.490722
5039.857,0.496704
5083.967,0.5043163
5128.854,0.50436
5174.538,0.514249
5221.041,0.533299
5268.386,0.54535
5316.595,0.55694
5365.692,0.57122
5415.701,0.599816
5466.65,0.6156695
5518.564,0.61475
5571.47,0.572788
5625.399,0.60268
5680.379,0.627161
5736.443,0.651089
5793.621,0.649087
5851.948,0.677891
5911.459,0.687821
5972.19,0.715522
6034.179,0.721551
6097.466,0.72689
6162.091,0.737275
6228.099,0.7336
6295.533,0.740076
6364.44,0.7706152
6434.869,0.783809
6506.872,0.801843
6580.501,0.82563
6655.812,0.806852
6732.864,0.8061755
6811.718,0.81734
6892.437,0.8226364
6975.089,0.831328
7059.743,0.838204
7146.475,0.854353
7235.36,0.848451
7326.481,0.865016
7419.922,0.862771
7515.774,0.87017
7614.131,0.878466
7715.093,0.883101
7818.764,0.889297
7925.254,0.897527
8034.682,0.903759
8147.169,0.910148
8262.847,0.915015
8381.852,0.920234
8504.331,0.925058
8630.437,0.9295809
8760.335,0.933969
8894.198,0.9382
9032.21,0.941196
9174.568,0.942569
9321.48,0.942889
9473.167,0.944366
9629.868,0.947153
9791.834,0.9492661
9959.336,0.951735
10132.662,0.954716
10312.121,0.957389
10498.045,0.959222
10690.79,0.960264
10890.738,0.961355
11098.301,0.961898
11313.921,0.962828
11538.079,0.963555
11771.29,0.964441
12014.114,0.965541
12267.16,0.965512
12531.086,0.966389
12806.608,0.967256
13094.51,0.96795
13395.644,0.968512
13710.943,0.96834
14041.433,0.966341
14388.237,0.962145
14752.594,0.948741
15135.871,0.908047
15539.583,0.769297
15965.407,0.532447

File: FTIR_CLAY_10.csv
Database of Origin,University of Winnipeg Spectrophotometer Facility
Sample Description,See Master Clays in HOSERLab database
Date Added,2016-12-11 20:56:55.2818

Data ID,FTIR_CLAY_10
Sample ID,MIN002
Mineral Name,Minnesotaite
Grain Size,<45 m
Viewing Geometry,35/0
Resolution,11-72 nm
Material Class,Phyllosilicate

Wavelength
2001.142,0.155975
2008.155,0.15469
2015.217,0.1544717
2022.328,0.153584
2029.488,0.153185
2036.698,0.152911
2043.959,0.1529713
2051.271,0.152268
2058.635,0.151822
2066.051,0.150833
2073.519,0.14949
2081.041,0.148546
2088.617,0.148138
2096.247,0.14773
2103.932,0.146021
2111.673,0.145285
2119.471,0.1440078
2127.325,0.1441111
2135.237,0.142554
2143.207,0.141801
2151.235,0.14143
2159.324,0.140685
2167.472,0.14092
2175.682,0.1398125
2183.952,0.139196
2192.285,0.13825
2200.682,0.137716
2209.141,0.136808
2217.665,0.1371195
2226.254,0.13579
2234.91,0.134907
2243.631,0.133747
2252.421,0.133361
2261.278,0.132046
2270.204,0.13128
2279.201,0.130477
2288.268,0.129932
2297.406,0.129298
2306.617,0.128901
2315.901,0.1279
2325.259,0.127024
2334.692,0.126803
2344.201,0.125991
2353.787,0.125595
2363.451,0.12534
2373.194,0.125869
2383.016,0.126013
2392.919,0.126084
2402.903,0.125586
2412.971,0.124634
2423.122,0.124388
2433.358,0.123904
2443.679,0.123623
2454.088,0.123348
2464.585,0.122538
2475.171,0.122225
2485.847,0.121942
2496.615,0.122395
2507.476,0.122106
2518.431,0.121859
2529.48,0.122459
2540.627,0.123349
2551.87,0.125175
2563.213,0.130835
2574.656,0.1284594
2586.201,0.13026
2597.849,0.128273
2609.601,0.128011
2621.459,0.128824
2633.424,0.129666
2645.498,0.127669
2657.682,0.127836
2669.978,0.142877
2682.387,0.127593
2694.911,0.134503
2707.552,0.123819
2720.31,0.118539
2733.188,0.08355105
2746.188,0.05904167
2759.311,0.05123462
2772.559,0.04960765
2785.934,0.04921373
2799.437,0.04942801
2813.071,0.05061428
2826.837,0.05228609
2840.737,0.05352938
2854.774,0.05392956
2868.949,0.05464031
2883.265,0.05440488
2897.723,0.05414092
2912.325,0.05344396
2927.075,0.05326217
2941.973,0.05425479
2957.023,0.05601521
2972.226,0.05548484
2987.586,0.05591617
3003.103,0.05896946
3018.782,0.05920448
3034.624,0.0639654
3050.632,0.06241866
3066.809,0.06557401
3083.157,0.06514591
3099.679,0.06730402
3116.378,0.06667693
3133.257,0.06754777
3150.319,0.06878408
3167.566,0.06982739
3185.001,0.07265526
3202.629,0.07312124
3220.451,0.07754857
3238.472,0.0756769
3256.694,0.08070447
3275.122,0.07794012
3293.757,0.08052515
3312.605,0.07912279
3331.669,0.08178179
3350.952,0.0775986
3370.458,0.07777789
3390.191,0.0772191
3410.156,0.08041331
3430.355,0.08032453
3450.794,0.08168984
3471.477,0.08072376
3492.408,0.08507335
3513.592,0.08489306
3535.032,0.09062279
3556.735,0.09069303
3578.704,0.09333359
3600.946,0.09629473
3623.463,0.09706194
3646.263,0.09868917
3669.351,0.100344
3692.731,0.102154
3716.409,0.104136
3740.392,0.106941
3764.685,0.109149
3789.294,0.111772
3814.225,0.113762
3839.486,0.115753
3865.081,0.118753
3891.019,0.123331
3917.305,0.126939
3943.948,0.12959
3970.954,0.133374
3998.33,0.140679
4026.086,0.147722
4054.228,0.159712
4082.764,0.170359
4111.703,0.179333
4141.054,0.188553
4170.826,0.198323
4201.026,0.2168745
4231.666,0.286888
4262.754,0.271032
4294.301,0.29399
4326.317,0.280347
4358.811,0.275301
4391.796,0.284042
4425.282,0.297267
4459.281,0.3103656
4493.805,0.323333
4528.865,0.3363509
4564.475,0.349764
4600.648,0.362249
4637.397,0.375762
4674.735,0.390499
4712.678,0.404781
4751.24,0.419898
4790.436,0.4354726
4830.283,0.448404
4870.795,0.461126
4911.991,0.473139
4953.888,0.488437
4996.504,0.497822
5039.857,0.510245
5083.967,0.526753
5128.854,0.534433
5174.538,0.547042
5221.041,0.5650477
5268.386,0.575051
5316.595,0.58618
5365.692,0.602401
5415.701,0.632541
5466.65,0.6518386
5518.564,0.652658
5571.47,0.587676
5625.399,0.622546
5680.379,0.652177
5736.443,0.677476
5793.621,0.677553
5851.948,0.706896
5911.459,0.717771
5972.19,0.745199
6034.179,0.752811
6097.466,0.757753
6162.091,0.767468
6228.099,0.765223
6295.533,0.771157
6364.44,0.799454
6434.869,0.813125
6506.872,0.828658
6580.501,0.850016
6655.812,0.833723
6732.864,0.833708
6811.718,0.844633
6892.437,0.849971
6975.089,0.859255
7059.743,0.866353
7146.475,0.881749
7235.36,0.877732
7326.481,0.893436
7419.922,0.892866
7515.774,0.900098
7614.131,0.907883
7715.093,0.912676
7818.764,0.918346
7925.254,0.926019
8034.682,0.9318501
8147.169,0.937386
8262.847,0.9419968
8381.852,0.94672
8504.331,0.951364
8630.437,0.955512
8760.335,0.959618
8894.198,0.963713
9032.21,0.966755
9174.568,0.967823
9321.48,0.968181
9473.167,0.969906
9629.868,0.971977
9791.834,0.973843
9959.336,0.976165
10132.662,0.978574
10312.121,0.9808265
10498.045,0.982458
10690.79,0.983165
10890.738,0.984261
11098.301,0.9842544
11313.921,0.984992
11538.079,0.985214
11771.29,0.985812
12014.114,0.986143
12267.16,0.985907
12531.086,0.986533
12806.608,0.987194
13094.51,0.9873376
13395.644,0.987564
13710.943,0.9874938
14041.433,0.984917
14388.237,0.980218
14752.594,0.966137
15135.871,0.925567
15539.583,0.783249
15965.407,0.536841

File: FTIR_CLAY_11.csv
Database of Origin,University of Winnipeg Spectrophotometer Facility
Sample Description,See Master Clays in HOSERLab database
Date Added,2016-12-11 20:56:55.3016

Data ID,FTIR_CLAY_11
Sample ID,MON101
Mineral Name,Montmorillonite
Grain Size,<45 m
Viewing Geometry,35/0
Resolution,11-72 nm
Material Class,Phyllosilicate

Wavelength
2001.142,0.312051
2008.155,0.3156274
2015.217,0.320067
2022.328,0.324447
2029.488,0.326711
2036.698,0.329232
2043.959,0.333359
2051.271,0.33585
2058.635,0.337547
2066.051,0.339769
2073.519,0.340812
2081.041,0.342428
2088.617,0.34385
2096.247,0.345235
2103.932,0.34746
2111.673,0.348919
2119.471,0.351154
2127.325,0.351894
2135.237,0.353612
2143.207,0.3546559
2151.235,0.353402
2159.324,0.350945
2167.472,0.347003
2175.682,0.340395
2183.952,0.33512
2192.285,0.329977
2200.682,0.323197
2209.141,0.319224
2217.665,0.322737
2226.254,0.325957
2234.91,0.328831
2243.631,0.332143
2252.421,0.336004
2261.278,0.339649
2270.204,0.341602
2279.201,0.341125
2288.268,0.340221
2297.406,0.339176
2306.617,0.3362013
2315.901,0.332459
2325.259,0.326918
2334.692,0.320474
2344.201,0.315438
2353.787,0.312806
2363.451,0.310055
2373.194,0.306801
2383.016,0.303934
2392.919,0.301613
2402.903,0.297957
2412.971,0.294097
2423.122,0.28802
2433.358,0.281991
2443.679,0.277651
2454.088,0.274159
2464.585,0.27017
2475.171,0.266871
2485.847,0.262975
2496.615,0.26047
2507.476,0.258179
2518.431,0.256365
2529.48,0.255867
2540.627,0.255594
2551.87,0.257426
2563.213,0.26148
2574.656,0.259267
2586.201,0.257891
2597.849,0.25411
2609.601,0.251239
2621.459,0.248004
2633.424,0.242522
2645.498,0.23314
2657.682,0.222957
2669.978,0.219559
2682.387,0.186171
2694.911,0.1470046
2707.552,0.09440202
2720.31,0.0717456
2733.188,0.03931705
2746.188,0.02486812
2759.311,0.02166418
2772.559,0.02183231
2785.934,0.02107351
2799.437,0.02021509
2813.071,0.02042779
2826.837,0.02018015
2840.737,0.01893888
2854.774,0.01894029
2868.949,0.01794073
2883.265,0.01675072
2897.723,0.01606368
2912.325,0.01575359
2927.075,0.01555734
2941.973,0.01492171
2957.023,0.01514058
2972.226,0.01490648
2987.586,0.0146385
3003.103,0.01511863
3018.782,0.01508895
3034.624,0.01736622
3050.632,0.01614283
3066.809,0.01762438
3083.157,0.01724368
3099.679,0.01875305
3116.378,0.01902653
3133.257,0.02017489
3150.319,0.02259323
3167.566,0.02581644
3185.001,0.03094536
3202.629,0.03455756
3220.451,0.04240886
3238.472,0.04571667
3256.694,0.05519933
3275.122,0.05839666
3293.757,0.06671714
3312.605,0.07298454
3331.669,0.08383048
3350.952,0.08991771
3370.458,0.09696661
3390.191,0.1049297
3410.156,0.115321
3430.355,0.124274
3450.794,0.135266
3471.477,0.144596
3492.408,0.15541
3513.592,0.163636
3535.032,0.176467
3556.735,0.184157
3578.704,0.194524
3600.946,0.204168
3623.463,0.212274
3646.263,0.219968
3669.351,0.227047
3692.731,0.234136
3716.409,0.240989
3740.392,0.2470958
3764.685,0.252772
3789.294,0.258191
3814.225,0.263185
3839.486,0.267281
3865.081,0.27085
3891.019,0.274119
3917.305,0.276589
3943.948,0.278465
3970.954,0.2804517
3998.33,0.281713
4026.086,0.281913
4054.228,0.281934
4082.764,0.282546
4111.703,0.283307
4141.054,0.28442
4170.826,0.286256
4201.026,0.2962139
4231.666,0.350709
4262.754,0.331495
4294.301,0.345047
4326.317,0.3275866
4358.811,0.317153
4391.796,0.3187736
4425.282,0.3253005
4459.281,0.33158
4493.805,0.339124
4528.865,0.347533
4564.475,0.355645
4600.648,0.363981
4637.397,0.372277
4674.735,0.3808639
4712.678,0.391538
4751.24,0.403648
4790.436,0.4162528
4830.283,0.426702
4870.795,0.4364827
4911.991,0.44337
4953.888,0.453673
4996.504,0.456821
5039.857,0.466995
5083.967,0.483886
5128.854,0.49087
5174.538,0.501316
5221.041,0.5160607
5268.386,0.517757
5316.595,0.52376
5365.692,0.5389844
5415.701,0.574827
5466.65,0.590215
5518.564,0.564299
5571.47,0.487799
5625.399,0.630115
5680.379,0.637493
5736.443,0.649526
5793.621,0.634655
5851.948,0.658263
5911.459,0.660206
5972.19,0.691187
6034.179,0.698169
6097.466,0.701647
6162.091,0.713233
6228.099,0.7083485
6295.533,0.714953
6364.44,0.7506203
6434.869,0.764622
6506.872,0.783153
6580.501,0.80931
6655.812,0.784716
6732.864,0.780556
6811.718,0.792601
6892.437,0.795931
6975.089,0.804025
7059.743,0.810128
7146.475,0.8272869
7235.36,0.8188447
7326.481,0.835598
7419.922,0.831208
7515.774,0.838015
7614.131,0.846154
7715.093,0.850839
7818.764,0.856928
7925.254,0.86581
8034.682,0.871274
8147.169,0.877605
8262.847,0.882556
8381.852,0.887282
8504.331,0.890907
8630.437,0.8946629
8760.335,0.899165
8894.198,0.9037735
9032.21,0.906772
9174.568,0.908622
9321.48,0.909552
9473.167,0.912451
9629.868,0.9147376
9791.834,0.91662
9959.336,0.918895
10132.662,0.921682
10312.121,0.924821
10498.045,0.926765
10690.79,0.928275
10890.738,0.929739
11098.301,0.930691
11313.921,0.931554
11538.079,0.933365
11771.29,0.936622
12014.114,0.938952
12267.16,0.9394687
12531.086,0.941142
12806.608,0.942365
13094.51,0.944995
13395.644,0.945466
13710.943,0.946524
14041.433,0.94762
14388.237,0.948873
14752.594,0.9442726
15135.871,0.927591
15539.583,0.871078
15965.407,0.679414

File: FTIR_CLAY_12.csv
Database of Origin,University of Winnipeg Spectrophotometer Facility
Sample Description,See Master Clays in HOSERLab database
Date Added,2016-12-11 20:56:55.3215

Data ID,FTIR_CLAY_12
Sample ID,NON101
Mineral Name,Nontronite
Grain Size,<45 m
Viewing Geometry,35/0
Resolution,11-72 nm
Material Class,Phyllosilicate

Wavelength
2001.142,0.393286
2008.155,0.39728
2015.217,0.401621
2022.328,0.404276
2029.488,0.407531
2036.698,0.410235
2043.959,0.413971
2051.271,0.416557
2058.635,0.418953
2066.051,0.420793
2073.519,0.421749
2081.041,0.423549
2088.617,0.425688
2096.247,0.4273999
2103.932,0.4289508
2111.673,0.4322655
2119.471,0.433864
2127.325,0.432983
2135.237,0.4342146
2143.207,0.434535
2151.235,0.433865
2159.324,0.432467
2167.472,0.430827
2175.682,0.430188
2183.952,0.4285352
2192.285,0.425117
2200.682,0.4181511
2209.141,0.413858
2217.665,0.413614
2226.254,0.413956
2234.91,0.417471
2243.631,0.419697
2252.421,0.419911
2261.278,0.413683
2270.204,0.397064
2279.201,0.3752236
2288.268,0.36743
2297.406,0.380798
2306.617,0.395831
2315.901,0.401111
2325.259,0.400125
2334.692,0.397632
2344.201,0.393409
2353.787,0.38911
2363.451,0.386001
2373.194,0.381089
2383.016,0.37322
2392.919,0.366586
2402.903,0.362732
2412.971,0.363868
2423.122,0.363312
2433.358,0.360688
2443.679,0.3581421
2454.088,0.3549764
2464.585,0.350612
2475.171,0.346708
2485.847,0.340604
2496.615,0.33625
2507.476,0.3337027
2518.431,0.334169
2529.48,0.334741
2540.627,0.334637
2551.87,0.336626
2563.213,0.341098
2574.656,0.338184
2586.201,0.336806
2597.849,0.33252
2609.601,0.328958
2621.459,0.323995
2633.424,0.317839
2645.498,0.306641
2657.682,0.293796
2669.978,0.287176
2682.387,0.241543
2694.911,0.161326
2707.552,0.142194
2720.31,0.131868
2733.188,0.08455514
2746.188,0.05554034
2759.311,0.04416146
2772.559,0.04214293
2785.934,0.03714275
2799.437,0.03164867
2813.071,0.03341102
2826.837,0.04169503
2840.737,0.04083042
2854.774,0.03850069
2868.949,0.03609109
2883.265,0.03420523
2897.723,0.03265588
2912.325,0.03106132
2927.075,0.02994041
2941.973,0.02972585
2957.023,0.03121924
2972.226,0.02961803
2987.586,0.02881382
3003.103,0.0307551
3018.782,0.03032188
3034.624,0.03413822
3050.632,0.0320784
3066.809,0.0342791
3083.157,0.03286734
3099.679,0.03410241
3116.378,0.03316808
3133.257,0.03369169
3150.319,0.03485197
3167.566,0.03617499
3185.001,0.03952744
3202.629,0.04115193
3220.451,0.0477491
3238.472,0.0479692
3256.694,0.05589294
3275.122,0.05580444
3293.757,0.06160698
3312.605,0.06441928
3331.669,0.0720444
3350.952,0.07440207
3370.458,0.07768051
3390.191,0.08068924
3410.156,0.08702465
3430.355,0.09085203
3450.794,0.09650091
3471.477,0.100936
3492.408,0.108052
3513.592,0.110831
3535.032,0.119351
3556.735,0.121931
3578.704,0.12794
3600.946,0.134591
3623.463,0.139294
3646.263,0.145298
3669.351,0.1513008
3692.731,0.158032
3716.409,0.164489
3740.392,0.170972
3764.685,0.176191
3789.294,0.181601
3814.225,0.1869212
3839.486,0.191995
3865.081,0.196491
3891.019,0.20111
3917.305,0.205505
3943.948,0.210249
3970.954,0.215897
3998.33,0.221483
4026.086,0.226404
4054.228,0.232703
4082.764,0.240121
4111.703,0.2477652
4141.054,0.256577
4170.826,0.265732
4201.026,0.283739
4231.666,0.351932
4262.754,0.334383
4294.301,0.354924
4326.317,0.339713
4358.811,0.333117
4391.796,0.338867
4425.282,0.349125
4459.281,0.358787
4493.805,0.369787
4528.865,0.380902
4564.475,0.3917103
4600.648,0.401892
4637.397,0.412134
4674.735,0.423013
4712.678,0.434787
4751.24,0.446469
4790.436,0.458829
4830.283,0.468981
4870.795,0.4783289
4911.991,0.485085
4953.888,0.496392
4996.504,0.501424
5039.857,0.512397
5083.967,0.528388
5128.854,0.535654
5174.538,0.546846
5221.041,0.561626
5268.386,0.565517
5316.595,0.573097
5365.692,0.588718
5415.701,0.622707
5466.65,0.640147
5518.564,0.638892
5571.47,0.645293
5625.399,0.621761
5680.379,0.644409
5736.443,0.665008
5793.621,0.662234
5851.948,0.688109
5911.459,0.695231
5972.19,0.721975
6034.179,0.728891
6097.466,0.733688
6162.091,0.743285
6228.099,0.741127
6295.533,0.749536
6364.44,0.780464
6434.869,0.794122
6506.872,0.81114
6580.501,0.833769
6655.812,0.8178987
6732.864,0.818085
6811.718,0.8295551
6892.437,0.834947
6975.089,0.843534
7059.743,0.8503357
7146.475,0.865793
7235.36,0.860838
7326.481,0.876396
7419.922,0.8744721
7515.774,0.881583
7614.131,0.889571
7715.093,0.894279
7818.764,0.900138
7925.254,0.908341
8034.682,0.914847
8147.169,0.921291
8262.847,0.925916
8381.852,0.930552
8504.331,0.934819
8630.437,0.938866
8760.335,0.943258
8894.198,0.947617
9032.21,0.9508081
9174.568,0.95177
9321.48,0.952189
9473.167,0.95362
9629.868,0.956207
9791.834,0.95818
9959.336,0.96076
10132.662,0.963577
10312.121,0.965942
10498.045,0.967857
10690.79,0.968945
10890.738,0.9699889
11098.301,0.970308
11313.921,0.971217
11538.079,0.971896
11771.29,0.972965
12014.114,0.973661
12267.16,0.973887
12531.086,0.974851
12806.608,0.9755668
13094.51,0.9765523
13395.644,0.976501
13710.943,0.976573
14041.433,0.9751834
14388.237,0.971858
14752.594,0.959912
15135.871,0.922647
15539.583,0.797082
15965.407,0.572102