Folder: wwu_spec/csv_library (part 10)

File: FTIR_PLG_04.csv
Database of Origin,University of Winnipeg Spectrophotometer Facility
Sample Description,IR Reflectance spectra of plagioclase with a Bruker Vertex 70 FTIR. See Master Plagioclase in PSF database for additional info.
Date Added,2016-11-22 04:00:06.309687

Data ID,FTIR_PLG_04
Sample ID,PLG109
Mineral Name,Plagioclase
Grain Size,<45 um
Viewing Geometry,"i30, e0"
Resolution,7.71cm-1
Material Class,Tectosilicate

Wavelength
1670.16,0.39683
1676.64,0.39616
1683.18,0.39686
1689.76,0.39606
1696.39,0.39627
1703.08,0.39623
1709.82,0.39483
1716.62,0.39555
1723.46,0.39529
1730.37,0.39579
1737.33,0.39634
1744.34,0.397
1751.41,0.3962
1758.54,0.39594
1765.73,0.39565
1772.98,0.39575
1780.28,0.39623
1787.65,0.39588
1795.08,0.39605
1802.57,0.39684
1810.12,0.3975
1817.73,0.40034
1825.42,0.40278
1833.16,0.40431
1840.97,0.40729
1848.85,0.40644
1856.8,0.40504
1864.81,0.40251
1872.9,0.41173
1881.05,0.39929
1889.28,0.40036
1897.58,0.40206
1905.95,0.4034
1914.39,0.40039
1922.92,0.39952
1931.51,0.39723
1940.19,0.3962
1948.94,0.39565
1957.77,0.3956
1966.68,0.3957
1975.68,0.39556
1984.76,0.3961
1993.92,0.39597
2003.16,0.39588
2012.49,0.39694
2021.91,0.39709
2031.42,0.39701
2041.02,0.39746
2050.7,0.39751
2060.48,0.39769
2070.36,0.39816
2080.33,0.39852
2090.4,0.39874
2100.56,0.39844
2110.82,0.39893
2121.19,0.39911
2131.65,0.39909
2142.22,0.39905
2152.9,0.399
2163.68,0.39908
2174.57,0.39877
2185.57,0.39866
2196.69,0.39825
2207.91,0.39849
2219.26,0.39891
2230.71,0.39885
2242.29,0.39865
2253.99,0.39919
2265.813,0.39919
2277.76,0.39941
2289.83,0.39902
2302.03,0.39871
2314.37,0.39808
2326.83,0.39793
2339.43,0.39826
2352.17,0.39873
2365.05,0.39925
2378.06,0.39911
2391.23,0.39929
2404.54,0.39964
2417.99,0.40003
2431.6,0.40003
2445.37,0.39972
2459.29,0.39925
2473.37,0.39948
2487.61,0.40008
2502.02,0.40022
2516.59,0.40176
2531.34,0.4073
2546.26,0.41289
2561.35,0.42393
2576.63,0.43082
2592.09,0.44114
2607.74,0.44287
2623.57,0.43431
2639.6,0.41456
2655.83,0.42618
2672.26,0.45749
2688.89,0.40966
2705.73,0.34582
2722.78,0.27217
2740.05,0.23702
2757.54,0.22405
2775.26,0.22308
2793.2,0.22522
2811.38,0.22849
2829.79,0.2276
2848.45,0.22743
2867.36,0.22491
2886.51,0.22468
2905.93,0.22513
2925.61,0.2253
2945.56,0.22779
2965.78,0.23209
2986.28,0.23671
3007.07,0.24266
3028.14,0.24849
3049.52,0.25454
3071.2,0.25991
3093.19,0.26588
3115.49,0.27203
3138.12,0.27915
3161.09,0.28597
3184.39,0.29374
3208.03,0.30132
3232.03,0.30659
3256.39,0.31283
3281.13,0.31906
3306.24,0.32512
3331.74,0.3293
3357.63,0.33049
3383.93,0.33226
3410.64,0.33213
3437.79,0.34232
3465.36,0.34845
3493.38,0.35124
3521.86,0.36064
3550.81,0.36726
3580.23,0.37182
3610.15,0.37542
3640.58,0.37879
3671.52,0.38162
3702.99,0.38427
3735,0.38612
3767.57,0.38848
3800.72,0.38943
3834.45,0.38933
3868.79,0.38926
3903.75,0.3892
3939.35,0.38832
3975.6,0.38449
4012.52,0.38705
4050.14,0.38828
4088.47,0.38825
4127.53,0.38715
4167.35,0.38524
4207.94,0.41105
4249.33,0.43048
4291.54,0.41832
4334.6,0.37554
4378.53,0.36047
4423.36,0.35322
4469.12,0.34542
4515.84,0.33604
4563.54,0.32524
4612.26,0.31389
4662.03,0.30153
4712.89,0.29177
4764.87,0.28405
4818.01,0.27725
4872.35,0.27079
4927.93,0.26297
4984.79,0.25325
5042.98,0.24041
5102.54,0.22317
5163.53,0.20817
5225.99,0.19656
5289.98,0.18629
5355.56,0.17881
5422.78,0.16887
5491.72,0.15871
5562.43,0.15311
5634.98,0.14739
5709.45,0.14314
5785.92,0.13331
5864.46,0.12806
5945.16,0.11574
6028.12,0.10547
6113.42,0.10029
6201.17,0.09624
6291.48,0.09249
6384.46,0.09958
6480.23,0.10103
6578.91,0.09587
6680.64,0.08397
6785.58,0.07533
6893.86,0.06703
7005.65,0.06051
7121.13,0.05389
7240.48,0.0463
7363.89,0.03745
7491.59,0.0281
7623.79,0.01927
7760.75,0.0118
7902.71,0.0074
8049.97,0.00762
8202.82,0.01679
8361.58,0.03126
8526.61,0.03158
8698.29,0.03162
8877.02,0.03027
9063.25,0.02626
9257.46,0.02349
9460.18,0.02797
9671.98,0.03288
9893.47,0.0359
10125.4,0.03558
10368.4,0.03556
10623.3,0.03765
10891.1,0.03849
11172.8,0.04229
11469.4,0.05249
11782.2,0.05714
12112.6,0.05807
12462,0.03405
12832.1,0.02151
13224.9,0.01948
13642.6,0.01969
14087.4,0.01934
14562.3,0.01695
15070.3,0.01646
15615,0.02619
16200.6,0.02765
16831.8,0.03369
17514.1,0.03309
18254.2,0.03348
19059.5,0.03393
19939.2,0.0272
20904,0.02129
21966.9,0.02431
23143.7,0.02196
24453.7,0.02437
25412.6,0.02476

File: FTIR_PLG_05.csv
Database of Origin,University of Winnipeg Spectrophotometer Facility
Sample Description,IR Reflectance spectra of plagioclase with a Bruker Vertex 70 FTIR. See Master Plagioclase in PSF database for additional info.
Date Added,2016-11-22 04:00:06.339867

Data ID,FTIR_PLG_05
Sample ID,PLG113
Mineral Name,Plagioclase
Grain Size,<45 um
Viewing Geometry,"i30, e0"
Resolution,7.71cm-1
Material Class,Tectosilicate

Wavelength
1670.16,0.45516
1676.64,0.45453
1683.18,0.45537
1689.76,0.45464
1696.39,0.45347
1703.08,0.45423
1709.82,0.45399
1716.62,0.45451
1723.46,0.45401
1730.37,0.45397
1737.33,0.45419
1744.34,0.45423
1751.41,0.45347
1758.54,0.45405
1765.73,0.45349
1772.98,0.45348
1780.28,0.45375
1787.65,0.45414
1795.08,0.45349
1802.57,0.45501
1810.12,0.45458
1817.73,0.45701
1825.42,0.45865
1833.16,0.46064
1840.97,0.46334
1848.85,0.46134
1856.8,0.46133
1864.81,0.45961
1872.9,0.46628
1881.05,0.45593
1889.28,0.45709
1897.58,0.45849
1905.95,0.45959
1914.39,0.45707
1922.92,0.45562
1931.51,0.45341
1940.19,0.4532
1948.94,0.4518
1957.77,0.45193
1966.68,0.45148
1975.68,0.45176
1984.76,0.452
1993.92,0.45199
2003.16,0.45211
2012.49,0.45211
2021.91,0.45226
2031.42,0.45263
2041.02,0.45295
2050.7,0.45203
2060.48,0.4526
2070.36,0.45285
2080.33,0.45266
2090.4,0.45286
2100.56,0.45274
2110.82,0.45234
2121.19,0.45238
2131.65,0.45251
2142.22,0.45221
2152.9,0.45238
2163.68,0.45228
2174.57,0.45136
2185.57,0.45088
2196.69,0.45085
2207.91,0.45091
2219.26,0.45111
2230.71,0.45095
2242.29,0.45088
2253.99,0.45066
2265.813,0.45045
2277.76,0.45024
2289.83,0.45008
2302.03,0.45008
2314.37,0.44993
2326.83,0.44961
2339.43,0.4489
2352.17,0.44864
2365.05,0.44879
2378.06,0.44895
2391.23,0.44864
2404.54,0.44869
2417.99,0.44871
2431.6,0.44812
2445.37,0.4481
2459.29,0.44754
2473.37,0.44736
2487.61,0.44791
2502.02,0.44801
2516.59,0.44862
2531.34,0.45266
2546.26,0.45735
2561.35,0.46564
2576.63,0.47134
2592.09,0.47954
2607.74,0.48131
2623.57,0.47401
2639.6,0.45771
2655.83,0.46755
2672.26,0.49393
2688.89,0.46374
2705.73,0.44413
2722.78,0.41523
2740.05,0.37642
2757.54,0.3515
2775.26,0.34531
2793.2,0.33247
2811.38,0.32063
2829.79,0.30967
2848.45,0.2999
2867.36,0.28751
2886.51,0.29048
2905.93,0.29133
2925.61,0.28794
2945.56,0.28758
2965.78,0.28922
2986.28,0.29268
3007.07,0.29679
3028.14,0.30121
3049.52,0.30505
3071.2,0.30877
3093.19,0.313
3115.49,0.31678
3138.12,0.32166
3161.09,0.32708
3184.39,0.33489
3208.03,0.34312
3232.03,0.34915
3256.39,0.35477
3281.13,0.36024
3306.24,0.36581
3331.74,0.36978
3357.63,0.36962
3383.93,0.3704
3410.64,0.36945
3437.79,0.37986
3465.36,0.38679
3493.38,0.38931
3521.86,0.39886
3550.81,0.40421
3580.23,0.40747
3610.15,0.41066
3640.58,0.41334
3671.52,0.41537
3702.99,0.41728
3735,0.41895
3767.57,0.42045
3800.72,0.42101
3834.45,0.4212
3868.79,0.42126
3903.75,0.42124
3939.35,0.42063
3975.6,0.41955
4012.52,0.41907
4050.14,0.41774
4088.47,0.41658
4127.53,0.41503
4167.35,0.4128
4207.94,0.43806
4249.33,0.45933
4291.54,0.44704
4334.6,0.4007
4378.53,0.38368
4423.36,0.37438
4469.12,0.36368
4515.84,0.35386
4563.54,0.34301
4612.26,0.33004
4662.03,0.31786
4712.89,0.30718
4764.87,0.2991
4818.01,0.29166
4872.35,0.28491
4927.93,0.2768
4984.79,0.26599
5042.98,0.25238
5102.54,0.23356
5163.53,0.21692
5225.99,0.20358
5289.98,0.19254
5355.56,0.18446
5422.78,0.17415
5491.72,0.16324
5562.43,0.15702
5634.98,0.15001
5709.45,0.14548
5785.92,0.13721
5864.46,0.13067
5945.16,0.11858
6028.12,0.10943
6113.42,0.10569
6201.17,0.10185
6291.48,0.09798
6384.46,0.10337
6480.23,0.10436
6578.91,0.10172
6680.64,0.09292
6785.58,0.08529
6893.86,0.07648
7005.65,0.06854
7121.13,0.0592
7240.48,0.04803
7363.89,0.03724
7491.59,0.02694
7623.79,0.01782
7760.75,0.01121
7902.71,0.0078
8049.97,0.0082
8202.82,0.01839
8361.58,0.03324
8526.61,0.03433
8698.29,0.03628
8877.02,0.03339
9063.25,0.02863
9257.46,0.02546
9460.18,0.03037
9671.98,0.03662
9893.47,0.03977
10125.4,0.0393
10368.4,0.03927
10623.3,0.04105
10891.1,0.04126
11172.8,0.04599
11469.4,0.05745
11782.2,0.06383
12112.6,0.06488
12462,0.03579
12832.1,0.02308
13224.9,0.02189
13642.6,0.02271
14087.4,0.02145
14562.3,0.0191
15070.3,0.01916
15615,0.02766
16200.6,0.03023
16831.8,0.03734
17514.1,0.03671
18254.2,0.03518
19059.5,0.03598
19939.2,0.03119
20904,0.03049
21966.9,0.02378
23143.7,0.02932
24453.7,0.04014
25412.6,0.05871

File: FTIR_PLG_06.csv
Database of Origin,University of Winnipeg Spectrophotometer Facility
Sample Description,IR Reflectance spectra of plagioclase with a Bruker Vertex 70 FTIR. See Master Plagioclase in PSF database for additional info.
Date Added,2016-11-22 04:00:06.352483

Data ID,FTIR_PLG_06
Sample ID,PLG114
Mineral Name,Plagioclase
Grain Size,<45 um
Viewing Geometry,"i30, e0"
Resolution,7.71cm-1
Material Class,Tectosilicate

Wavelength
1670.16,0.5528
1676.64,0.55224
1683.18,0.55318
1689.76,0.55229
1696.39,0.55243
1703.08,0.55154
1709.82,0.55154
1716.62,0.55206
1723.46,0.5507
1730.37,0.5509
1737.33,0.55208
1744.34,0.55154
1751.41,0.55124
1758.54,0.55144
1765.73,0.55126
1772.98,0.55097
1780.28,0.55129
1787.65,0.55089
1795.08,0.5507
1802.57,0.55098
1810.12,0.55185
1817.73,0.55316
1825.42,0.5541
1833.16,0.55525
1840.97,0.55784
1848.85,0.55704
1856.8,0.55498
1864.81,0.5533
1872.9,0.55922
1881.05,0.54899
1889.28,0.54805
1897.58,0.54557
1905.95,0.5428
1914.39,0.5385
1922.92,0.5387
1931.51,0.53699
1940.19,0.5375
1948.94,0.53686
1957.77,0.53729
1966.68,0.5379
1975.68,0.53785
1984.76,0.53849
1993.92,0.53906
2003.16,0.53913
2012.49,0.53981
2021.91,0.54102
2031.42,0.54138
2041.02,0.54242
2050.7,0.54176
2060.48,0.54257
2070.36,0.54273
2080.33,0.54235
2090.4,0.54265
2100.56,0.54255
2110.82,0.54201
2121.19,0.54194
2131.65,0.54154
2142.22,0.54076
2152.9,0.53909
2163.68,0.53704
2174.57,0.53333
2185.57,0.52997
2196.69,0.5279
2207.91,0.52959
2219.26,0.53003
2230.71,0.52737
2242.29,0.52324
2253.99,0.52007
2265.813,0.51959
2277.76,0.51991
2289.83,0.51692
2302.03,0.51498
2314.37,0.51145
2326.83,0.50205
2339.43,0.49646
2352.17,0.49418
2365.05,0.49735
2378.06,0.50431
2391.23,0.50653
2404.54,0.50881
2417.99,0.50881
2431.6,0.50682
2445.37,0.5051
2459.29,0.502
2473.37,0.50041
2487.61,0.50124
2502.02,0.50029
2516.59,0.50021
2531.34,0.50163
2546.26,0.50383
2561.35,0.5086
2576.63,0.51169
2592.09,0.51757
2607.74,0.51693
2623.57,0.51057
2639.6,0.49577
2655.83,0.49857
2672.26,0.50814
2688.89,0.46152
2705.73,0.38968
2722.78,0.29199
2740.05,0.22999
2757.54,0.21173
2775.26,0.2183
2793.2,0.20723
2811.38,0.19765
2829.79,0.19309
2848.45,0.18392
2867.36,0.16586
2886.51,0.17893
2905.93,0.18496
2925.61,0.18071
2945.56,0.18204
2965.78,0.18594
2986.28,0.18739
3007.07,0.18951
3028.14,0.1974
3049.52,0.20541
3071.2,0.21176
3093.19,0.21564
3115.49,0.21702
3138.12,0.21921
3161.09,0.22569
3184.39,0.23703
3208.03,0.25067
3232.03,0.26281
3256.39,0.27442
3281.13,0.28519
3306.24,0.29502
3331.74,0.30382
3357.63,0.3093
3383.93,0.31341
3410.64,0.31402
3437.79,0.33118
3465.36,0.34557
3493.38,0.34977
3521.86,0.36635
3550.81,0.37919
3580.23,0.38762
3610.15,0.39477
3640.58,0.40087
3671.52,0.40709
3702.99,0.41272
3735,0.4179
3767.57,0.42344
3800.72,0.42753
3834.45,0.42996
3868.79,0.43263
3903.75,0.43484
3939.35,0.43598
3975.6,0.43457
4012.52,0.43629
4050.14,0.43693
4088.47,0.43637
4127.53,0.4345
4167.35,0.43193
4207.94,0.45167
4249.33,0.46787
4291.54,0.45266
4334.6,0.4118
4378.53,0.39576
4423.36,0.38599
4469.12,0.37648
4515.84,0.37373
4563.54,0.36272
4612.26,0.34065
4662.03,0.33082
4712.89,0.32794
4764.87,0.31823
4818.01,0.31002
4872.35,0.30252
4927.93,0.29208
4984.79,0.28254
5042.98,0.26838
5102.54,0.25737
5163.53,0.24349
5225.99,0.23164
5289.98,0.21734
5355.56,0.20491
5422.78,0.19056
5491.72,0.18694
5562.43,0.19315
5634.98,0.19045
5709.45,0.17884
5785.92,0.16274
5864.46,0.14964
5945.16,0.12822
6028.12,0.11085
6113.42,0.10778
6201.17,0.1082
6291.48,0.10689
6384.46,0.11215
6480.23,0.11338
6578.91,0.11073
6680.64,0.10337
6785.58,0.09683
6893.86,0.08937
7005.65,0.08356
7121.13,0.07578
7240.48,0.06529
7363.89,0.05497
7491.59,0.04354
7623.79,0.03196
7760.75,0.02065
7902.71,0.01131
8049.97,0.00565
8202.82,0.00604
8361.58,0.01503
8526.61,0.02506
8698.29,0.0277
8877.02,0.02484
9063.25,0.02208
9257.46,0.01654
9460.18,0.01777
9671.98,0.02736
9893.47,0.02655
10125.4,0.02904
10368.4,0.03477
10623.3,0.04162
10891.1,0.04143
11172.8,0.0398
11469.4,0.04117
11782.2,0.05038
12112.6,0.05439
12462,0.04471
12832.1,0.02188
13224.9,0.01927
13642.6,0.01801
14087.4,0.01854
14562.3,0.0131
15070.3,0.01589
15615,0.02489
16200.6,0.02604
16831.8,0.03211
17514.1,0.03298
18254.2,0.03097
19059.5,0.03271
19939.2,0.02919
20904,0.02218
21966.9,0.02646
23143.7,0.02392
24453.7,0.00975
25412.6,0.06728

File: FTIR_PLG_07.csv
Database of Origin,University of Winnipeg Spectrophotometer Facility
Sample Description,IR Reflectance spectra of plagioclase with a Bruker Vertex 70 FTIR. See Master Plagioclase in PSF database for additional info.
Date Added,2016-11-22 04:00:06.364986

Data ID,FTIR_PLG_07
Sample ID,PLG115
Mineral Name,Plagioclase
Grain Size,<45 um
Viewing Geometry,"i30, e0"
Resolution,7.71cm-1
Material Class,Tectosilicate

Wavelength
1670.16,0.48153
1676.64,0.48118
1683.18,0.48275
1689.76,0.48063
1696.39,0.48129
1703.08,0.48153
1709.82,0.48137
1716.62,0.48105
1723.46,0.48133
1730.37,0.48079
1737.33,0.48106
1744.34,0.48027
1751.41,0.48006
1758.54,0.47969
1765.73,0.47985
1772.98,0.4802
1780.28,0.47964
1787.65,0.47911
1795.08,0.47927
1802.57,0.48002
1810.12,0.48064
1817.73,0.48258
1825.42,0.48389
1833.16,0.48496
1840.97,0.48733
1848.85,0.48575
1856.8,0.48531
1864.81,0.48312
1872.9,0.48944
1881.05,0.47932
1889.28,0.47824
1897.58,0.4779
1905.95,0.47649
1914.39,0.47268
1922.92,0.47267
1931.51,0.47087
1940.19,0.4708
1948.94,0.47016
1957.77,0.471
1966.68,0.47085
1975.68,0.47135
1984.76,0.47165
1993.92,0.47242
2003.16,0.47249
2012.49,0.47293
2021.91,0.47343
2031.42,0.47372
2041.02,0.47381
2050.7,0.47364
2060.48,0.47428
2070.36,0.47408
2080.33,0.47399
2090.4,0.47414
2100.56,0.47375
2110.82,0.47437
2121.19,0.47399
2131.65,0.47392
2142.22,0.47358
2152.9,0.47364
2163.68,0.47319
2174.57,0.47268
2185.57,0.47192
2196.69,0.47106
2207.91,0.47042
2219.26,0.47017
2230.71,0.46919
2242.29,0.46789
2253.99,0.46811
2265.813,0.46864
2277.76,0.46831
2289.83,0.46766
2302.03,0.46682
2314.37,0.46536
2326.83,0.46521
2339.43,0.46483
2352.17,0.46511
2365.05,0.46501
2378.06,0.46471
2391.23,0.46419
2404.54,0.46352
2417.99,0.46269
2431.6,0.46157
2445.37,0.46067
2459.29,0.45934
2473.37,0.4584
2487.61,0.45747
2502.02,0.45694
2516.59,0.4573
2531.34,0.45978
2546.26,0.46385
2561.35,0.47059
2576.63,0.47583
2592.09,0.4829
2607.74,0.48402
2623.57,0.47695
2639.6,0.46086
2655.83,0.46548
2672.26,0.47815
2688.89,0.4224
2705.73,0.34209
2722.78,0.27678
2740.05,0.2386
2757.54,0.21925
2775.26,0.21452
2793.2,0.21185
2811.38,0.20897
2829.79,0.20573
2848.45,0.20326
2867.36,0.19969
2886.51,0.19738
2905.93,0.19631
2925.61,0.19454
2945.56,0.19556
2965.78,0.19834
2986.28,0.20226
3007.07,0.2066
3028.14,0.21085
3049.52,0.21458
3071.2,0.21772
3093.19,0.22269
3115.49,0.22868
3138.12,0.23593
3161.09,0.24345
3184.39,0.25232
3208.03,0.26147
3232.03,0.27027
3256.39,0.27831
3281.13,0.28715
3306.24,0.29609
3331.74,0.30428
3357.63,0.30966
3383.93,0.31383
3410.64,0.31488
3437.79,0.32852
3465.36,0.34013
3493.38,0.34481
3521.86,0.35877
3550.81,0.36975
3580.23,0.37741
3610.15,0.38383
3640.58,0.38947
3671.52,0.39441
3702.99,0.3987
3735,0.40229
3767.57,0.40512
3800.72,0.40688
3834.45,0.40808
3868.79,0.40808
3903.75,0.4072
3939.35,0.40548
3975.6,0.40392
4012.52,0.40448
4050.14,0.40312
4088.47,0.4005
4127.53,0.39745
4167.35,0.39422
4207.94,0.41297
4249.33,0.42811
4291.54,0.41648
4334.6,0.37774
4378.53,0.36222
4423.36,0.3534
4469.12,0.34271
4515.84,0.32989
4563.54,0.31629
4612.26,0.30209
4662.03,0.28751
4712.89,0.276
4764.87,0.26869
4818.01,0.26291
4872.35,0.25745
4927.93,0.25159
4984.79,0.24131
5042.98,0.22757
5102.54,0.20954
5163.53,0.19305
5225.99,0.17968
5289.98,0.17003
5355.56,0.16124
5422.78,0.14802
5491.72,0.13171
5562.43,0.11969
5634.98,0.1117
5709.45,0.10835
5785.92,0.10409
5864.46,0.10195
5945.16,0.09458
6028.12,0.08778
6113.42,0.08233
6201.17,0.08012
6291.48,0.07975
6384.46,0.0849
6480.23,0.08482
6578.91,0.07891
6680.64,0.06966
6785.58,0.06202
6893.86,0.055
7005.65,0.04962
7121.13,0.04237
7240.48,0.03327
7363.89,0.02476
7491.59,0.01723
7623.79,0.01138
7760.75,0.00789
7902.71,0.00693
8049.97,0.01143
8202.82,0.02876
8361.58,0.04919
8526.61,0.04842
8698.29,0.04607
8877.02,0.0428
9063.25,0.03797
9257.46,0.03609
9460.18,0.0426
9671.98,0.0558
9893.47,0.05797
10125.4,0.05199
10368.4,0.04429
10623.3,0.04152
10891.1,0.04259
11172.8,0.0521
11469.4,0.0587
11782.2,0.06266
12112.6,0.05867
12462,0.02859
12832.1,0.02137
13224.9,0.0221
13642.6,0.02266
14087.4,0.02272
14562.3,0.02214
15070.3,0.01948
15615,0.02805
16200.6,0.0366
16831.8,0.04101
17514.1,0.03774
18254.2,0.03552
19059.5,0.03663
19939.2,0.02686
20904,0.03338
21966.9,0.02782
23143.7,0.03907
24453.7,0.043
25412.6,0.02782

File: FTIR_PLG_08.csv
Database of Origin,University of Winnipeg Spectrophotometer Facility
Sample Description,IR Reflectance spectra of plagioclase with a Bruker Vertex 70 FTIR. See Master Plagioclase in PSF database for additional info.
Date Added,2016-11-22 04:00:06.377422

Data ID,FTIR_PLG_08
Sample ID,PLG117
Mineral Name,Plagioclase
Grain Size,<45 um
Viewing Geometry,"i30, e0"
Resolution,7.71cm-1
Material Class,Tectosilicate

Wavelength
1670.16,0.55299
1676.64,0.55254
1683.18,0.55335
1689.76,0.55235
1696.39,0.55169
1703.08,0.55239
1709.82,0.55087
1716.62,0.55157
1723.46,0.55124
1730.37,0.55021
1737.33,0.55187
1744.34,0.55139
1751.41,0.55054
1758.54,0.55021
1765.73,0.54985
1772.98,0.54982
1780.28,0.54973
1787.65,0.54961
1795.08,0.54938
1802.57,0.55054
1810.12,0.55019
1817.73,0.55093
1825.42,0.55142
1833.16,0.55254
1840.97,0.55459
1848.85,0.553
1856.8,0.55246
1864.81,0.54989
1872.9,0.55288
1881.05,0.54535
1889.28,0.54405
1897.58,0.53939
1905.95,0.53422
1914.39,0.52988
1922.92,0.52977
1931.51,0.53051
1940.19,0.53152
1948.94,0.53184
1957.77,0.5324
1966.68,0.53341
1975.68,0.53349
1984.76,0.53469
1993.92,0.53544
2003.16,0.536
2012.49,0.5369
2021.91,0.53812
2031.42,0.53867
2041.02,0.53982
2050.7,0.53923
2060.48,0.53956
2070.36,0.53989
2080.33,0.54008
2090.4,0.53951
2100.56,0.53946
2110.82,0.53869
2121.19,0.53783
2131.65,0.53696
2142.22,0.53571
2152.9,0.53324
2163.68,0.52859
2174.57,0.52238
2185.57,0.51618
2196.69,0.51197
2207.91,0.51431
2219.26,0.5182
2230.71,0.51498
2242.29,0.51095
2253.99,0.50777
2265.813,0.5071
2277.76,0.50597
2289.83,0.50202
2302.03,0.50055
2314.37,0.49483
2326.83,0.47833
2339.43,0.46815
2352.17,0.4646
2365.05,0.46984
2378.06,0.48077
2391.23,0.48359
2404.54,0.48729
2417.99,0.4875
2431.6,0.48554
2445.37,0.48418
2459.29,0.48245
2473.37,0.48031
2487.61,0.47968
2502.02,0.47842
2516.59,0.47697
2531.34,0.47605
2546.26,0.4774
2561.35,0.4787
2576.63,0.48032
2592.09,0.48392
2607.74,0.48153
2623.57,0.47664
2639.6,0.46604
2655.83,0.46564
2672.26,0.46585
2688.89,0.42325
2705.73,0.34897
2722.78,0.23692
2740.05,0.16902
2757.54,0.15444
2775.26,0.17955
2793.2,0.17873
2811.38,0.16807
2829.79,0.1634
2848.45,0.14768
2867.36,0.1236
2886.51,0.14454
2905.93,0.15698
2925.61,0.15323
2945.56,0.155
2965.78,0.16091
2986.28,0.16472
3007.07,0.16945
3028.14,0.17731
3049.52,0.18505
3071.2,0.19038
3093.19,0.19274
3115.49,0.19412
3138.12,0.19597
3161.09,0.1997
3184.39,0.2065
3208.03,0.21675
3232.03,0.22772
3256.39,0.23922
3281.13,0.24981
3306.24,0.25793
3331.74,0.2655
3357.63,0.27214
3383.93,0.28017
3410.64,0.28738
3437.79,0.30193
3465.36,0.3131
3493.38,0.32069
3521.86,0.3349
3550.81,0.34645
3580.23,0.35508
3610.15,0.36302
3640.58,0.37035
3671.52,0.37722
3702.99,0.38426
3735,0.39061
3767.57,0.39664
3800.72,0.40026
3834.45,0.40188
3868.79,0.40441
3903.75,0.40749
3939.35,0.40773
3975.6,0.40362
4012.52,0.41019
4050.14,0.41421
4088.47,0.41558
4127.53,0.4141
4167.35,0.41197
4207.94,0.42423
4249.33,0.43408
4291.54,0.42384
4334.6,0.39613
4378.53,0.38243
4423.36,0.36729
4469.12,0.35158
4515.84,0.3549
4563.54,0.35143
4612.26,0.33598
4662.03,0.32652
4712.89,0.32127
4764.87,0.31259
4818.01,0.30453
4872.35,0.29778
4927.93,0.28955
4984.79,0.28123
5042.98,0.26917
5102.54,0.25797
5163.53,0.24641
5225.99,0.23521
5289.98,0.22109
5355.56,0.20866
5422.78,0.19463
5491.72,0.19203
5562.43,0.19732
5634.98,0.19715
5709.45,0.19067
5785.92,0.17674
5864.46,0.16113
5945.16,0.13904
6028.12,0.12132
6113.42,0.11697
6201.17,0.12188
6291.48,0.12303
6384.46,0.12707
6480.23,0.12681
6578.91,0.12171
6680.64,0.11276
6785.58,0.10512
6893.86,0.0976
7005.65,0.09328
7121.13,0.08799
7240.48,0.08095
7363.89,0.07293
7491.59,0.0624
7623.79,0.05096
7760.75,0.03984
7902.71,0.0303
8049.97,0.024
8202.82,0.0232
8361.58,0.02942
8526.61,0.03592
8698.29,0.03818
8877.02,0.03693
9063.25,0.03489
9257.46,0.03007
9460.18,0.03044
9671.98,0.03668
9893.47,0.03661
10125.4,0.03812
10368.4,0.04236
10623.3,0.04776
10891.1,0.04819
11172.8,0.04845
11469.4,0.05132
11782.2,0.05912
12112.6,0.05794
12462,0.05087
12832.1,0.03413
13224.9,0.03099
13642.6,0.03094
14087.4,0.03081
14562.3,0.02717
15070.3,0.02868
15615,0.03481
16200.6,0.03541
16831.8,0.03947
17514.1,0.03772
18254.2,0.03935
19059.5,0.04008
19939.2,0.03467
20904,0.03411
21966.9,0.03703
23143.7,0.03468
24453.7,0.04812
25412.6,0.02431

File: FTIR_PLG_10.csv
Database of Origin,University of Winnipeg Spectrophotometer Facility
Sample Description,IR Reflectance spectra of plagioclase with a Bruker Vertex 70 FTIR. See Master Plagioclase in PSF database for additional info.
Date Added,2016-11-22 04:00:06.409220

Data ID,FTIR_PLG_10
Sample ID,PLG130
Mineral Name,Plagioclase
Grain Size,<45 um
Viewing Geometry,"i30, e0"
Resolution,7.71cm-1
Material Class,Tectosilicate

Wavelength
1670.16,0.49039
1676.64,0.4906
1683.18,0.49112
1689.76,0.49079
1696.39,0.48984
1703.08,0.49096
1709.82,0.48938
1716.62,0.4901
1723.46,0.48923
1730.37,0.48942
1737.33,0.48962
1744.34,0.48956
1751.41,0.48804
1758.54,0.48831
1765.73,0.48809
1772.98,0.48796
1780.28,0.48851
1787.65,0.48848
1795.08,0.48802
1802.57,0.48864
1810.12,0.48966
1817.73,0.49178
1825.42,0.4937
1833.16,0.49569
1840.97,0.49861
1848.85,0.49758
1856.8,0.49567
1864.81,0.4924
1872.9,0.50051
1881.05,0.48687
1889.28,0.48448
1897.58,0.48211
1905.95,0.47828
1914.39,0.46914
1922.92,0.46158
1931.51,0.45496
1940.19,0.45001
1948.94,0.44818
1957.77,0.44785
1966.68,0.4487
1975.68,0.45019
1984.76,0.45271
1993.92,0.45632
2003.16,0.45913
2012.49,0.46236
2021.91,0.46448
2031.42,0.4662
2041.02,0.46747
2050.7,0.46795
2060.48,0.46913
2070.36,0.47067
2080.33,0.47124
2090.4,0.47216
2100.56,0.47308
2110.82,0.47426
2121.19,0.47438
2131.65,0.47491
2142.22,0.4756
2152.9,0.47575
2163.68,0.47537
2174.57,0.47592
2185.57,0.47634
2196.69,0.47648
2207.91,0.47682
2219.26,0.47683
2230.71,0.47691
2242.29,0.47703
2253.99,0.47689
2265.813,0.47665
2277.76,0.47645
2289.83,0.47621
2302.03,0.47564
2314.37,0.47469
2326.83,0.47421
2339.43,0.47309
2352.17,0.4713
2365.05,0.46933
2378.06,0.46642
2391.23,0.46253
2404.54,0.45816
2417.99,0.45471
2431.6,0.45159
2445.37,0.44922
2459.29,0.44722
2473.37,0.44584
2487.61,0.44584
2502.02,0.44555
2516.59,0.44686
2531.34,0.45147
2546.26,0.45635
2561.35,0.46531
2576.63,0.47085
2592.09,0.47873
2607.74,0.47846
2623.57,0.46709
2639.6,0.44419
2655.83,0.44956
2672.26,0.4715
2688.89,0.42543
2705.73,0.39118
2722.78,0.3581
2740.05,0.30559
2757.54,0.25559
2775.26,0.21825
2793.2,0.1933
2811.38,0.18085
2829.79,0.16986
2848.45,0.1625
2867.36,0.15738
2886.51,0.15476
2905.93,0.15246
2925.61,0.14881
2945.56,0.14709
2965.78,0.14844
2986.28,0.15062
3007.07,0.15253
3028.14,0.15224
3049.52,0.15097
3071.2,0.15256
3093.19,0.15739
3115.49,0.16577
3138.12,0.17479
3161.09,0.18476
3184.39,0.19537
3208.03,0.2064
3232.03,0.2167
3256.39,0.2276
3281.13,0.23907
3306.24,0.25219
3331.74,0.26429
3357.63,0.27374
3383.93,0.28371
3410.64,0.29267
3437.79,0.30732
3465.36,0.31929
3493.38,0.32851
3521.86,0.34213
3550.81,0.352
3580.23,0.36105
3610.15,0.36866
3640.58,0.37534
3671.52,0.38124
3702.99,0.3866
3735,0.39112
3767.57,0.39564
3800.72,0.39934
3834.45,0.40191
3868.79,0.40347
3903.75,0.40451
3939.35,0.40511
3975.6,0.40363
4012.52,0.40156
4050.14,0.398
4088.47,0.39311
4127.53,0.38757
4167.35,0.38063
4207.94,0.40143
4249.33,0.41703
4291.54,0.39488
4334.6,0.33985
4378.53,0.32268
4423.36,0.32142
4469.12,0.32225
4515.84,0.32087
4563.54,0.31638
4612.26,0.30893
4662.03,0.29961
4712.89,0.29047
4764.87,0.28251
4818.01,0.27499
4872.35,0.2684
4927.93,0.26091
4984.79,0.25112
5042.98,0.24139
5102.54,0.22983
5163.53,0.21705
5225.99,0.20549
5289.98,0.1935
5355.56,0.1835
5422.78,0.17228
5491.72,0.16485
5562.43,0.16398
5634.98,0.15868
5709.45,0.15155
5785.92,0.13768
5864.46,0.12168
5945.16,0.08834
6028.12,0.08286
6113.42,0.08429
6201.17,0.08139
6291.48,0.08083
6384.46,0.09165
6480.23,0.09533
6578.91,0.094
6680.64,0.08656
6785.58,0.08105
6893.86,0.07414
7005.65,0.06777
7121.13,0.05938
7240.48,0.05039
7363.89,0.04063
7491.59,0.03061
7623.79,0.02125
7760.75,0.01314
7902.71,0.00762
8049.97,0.00544
8202.82,0.00843
8361.58,0.0165
8526.61,0.02017
8698.29,0.02119
8877.02,0.02233
9063.25,0.02063
9257.46,0.01786
9460.18,0.01922
9671.98,0.02477
9893.47,0.02853
10125.4,0.02921
10368.4,0.03227
10623.3,0.03615
10891.1,0.03623
11172.8,0.03477
11469.4,0.03877
11782.2,0.04414
12112.6,0.05262
12462,0.03683
12832.1,0.01951
13224.9,0.01701
13642.6,0.01635
14087.4,0.01548
14562.3,0.0131
15070.3,0.01495
15615,0.02163
16200.6,0.02468
16831.8,0.03029
17514.1,0.02697
18254.2,0.02704
19059.5,0.02173
19939.2,0.02626
20904,0.02411
21966.9,0.02283
23143.7,0.0252
24453.7,0.03836
25412.6,0.04941