Folder: wwu_spec/csv_library (part 5)

File: FTIR_CLAY_13.csv
Database of Origin,University of Winnipeg Spectrophotometer Facility
Sample Description,See Master Clays in HOSERLab database
Date Added,2016-12-11 20:56:55.3414

Data ID,FTIR_CLAY_13
Sample ID,SAP101
Mineral Name,Saponite
Grain Size,<45 m
Viewing Geometry,35/0
Resolution,11-72 nm
Material Class,Phyllosilicate

Wavelength
2001.142,0.37669
2008.155,0.380623
2015.217,0.383996
2022.328,0.3870064
2029.488,0.389578
2036.698,0.392467
2043.959,0.394198
2051.271,0.396288
2058.635,0.398329
2066.051,0.3995008
2073.519,0.40064
2081.041,0.402199
2088.617,0.403683
2096.247,0.404433
2103.932,0.40632
2111.673,0.408049
2119.471,0.409847
2127.325,0.409984
2135.237,0.410837
2143.207,0.410932
2151.235,0.411347
2159.324,0.408475
2167.472,0.407176
2175.682,0.404347
2183.952,0.400863
2192.285,0.396443
2200.682,0.391004
2209.141,0.386759
2217.665,0.388288
2226.254,0.391174
2234.91,0.391453
2243.631,0.393137
2252.421,0.396341
2261.278,0.397931
2270.204,0.3958329
2279.201,0.392132
2288.268,0.389301
2297.406,0.388354
2306.617,0.388485
2315.901,0.387607
2325.259,0.385135
2334.692,0.382049
2344.201,0.37815
2353.787,0.374294
2363.451,0.36976
2373.194,0.365205
2383.016,0.360793
2392.919,0.356441
2402.903,0.352661
2412.971,0.34827
2423.122,0.343638
2433.358,0.338653
2443.679,0.3332711
2454.088,0.328348
2464.585,0.323995
2475.171,0.319633
2485.847,0.315274
2496.615,0.311018
2507.476,0.307326
2518.431,0.305016
2529.48,0.304166
2540.627,0.30373
2551.87,0.305502
2563.213,0.311312
2574.656,0.308312
2586.201,0.307684
2597.849,0.303906
2609.601,0.299267
2621.459,0.2952035
2633.424,0.288322
2645.498,0.277156
2657.682,0.265113
2669.978,0.263122
2682.387,0.228358
2694.911,0.191779
2707.552,0.1525322
2720.31,0.126839
2733.188,0.06721841
2746.188,0.04009646
2759.311,0.03282115
2772.559,0.03051275
2785.934,0.02979211
2799.437,0.02773757
2813.071,0.02711839
2826.837,0.02675075
2840.737,0.02511074
2854.774,0.02387938
2868.949,0.02177174
2883.265,0.02043413
2897.723,0.01995421
2912.325,0.0187366
2927.075,0.0188902
2941.973,0.01854086
2957.023,0.01935106
2972.226,0.01840616
2987.586,0.01897999
3003.103,0.02020745
3018.782,0.02070665
3034.624,0.02371348
3050.632,0.02262385
3066.809,0.02471893
3083.157,0.02464516
3099.679,0.02637419
3116.378,0.02664548
3133.257,0.0289374
3150.319,0.03160759
3167.566,0.03533948
3185.001,0.04049595
3202.629,0.04391538
3220.451,0.05165126
3238.472,0.05529595
3256.694,0.06426304
3275.122,0.0677901
3293.757,0.07569263
3312.605,0.08220404
3331.669,0.09229521
3350.952,0.0982394
3370.458,0.102714
3390.191,0.108787
3410.156,0.113825
3430.355,0.12304
3450.794,0.140191
3471.477,0.15111
3492.408,0.159403
3513.592,0.167381
3535.032,0.190027
3556.735,0.202037
3578.704,0.214174
3600.946,0.225805
3623.463,0.236436
3646.263,0.246488
3669.351,0.256257
3692.731,0.266233
3716.409,0.275809
3740.392,0.284164
3764.685,0.292925
3789.294,0.300792
3814.225,0.307683
3839.486,0.313872
3865.081,0.318893
3891.019,0.323214
3917.305,0.327448
3943.948,0.3302641
3970.954,0.3336563
3998.33,0.335782
4026.086,0.337165
4054.228,0.339014
4082.764,0.340933
4111.703,0.344356
4141.054,0.348899
4170.826,0.354034
4201.026,0.3695621
4231.666,0.456896
4262.754,0.421312
4294.301,0.445452
4326.317,0.4175167
4358.811,0.4044341
4391.796,0.409384
4425.282,0.4188626
4459.281,0.426757
4493.805,0.4335426
4528.865,0.440932
4564.475,0.448784
4600.648,0.457174
4637.397,0.465951
4674.735,0.475314
4712.678,0.486229
4751.24,0.496829
4790.436,0.509017
4830.283,0.516999
4870.795,0.52678
4911.991,0.535654
4953.888,0.546785
4996.504,0.551687
5039.857,0.5592
5083.967,0.5713942
5128.854,0.574902
5174.538,0.582492
5221.041,0.594701
5268.386,0.597065
5316.595,0.602357
5365.692,0.6131069
5415.701,0.642674
5466.65,0.673237
5518.564,0.729188
5571.47,0.635832
5625.399,0.502802
5680.379,0.55845
5736.443,0.587048
5793.621,0.590228
5851.948,0.614729
5911.459,0.62254
5972.19,0.649729
6034.179,0.656754
6097.466,0.660148
6162.091,0.671078
6228.099,0.674632
6295.533,0.684919
6364.44,0.713876
6434.869,0.726254
6506.872,0.743677
6580.501,0.766991
6655.812,0.748968
6732.864,0.746743
6811.718,0.756144
6892.437,0.758488
6975.089,0.765025
7059.743,0.770671
7146.475,0.786777
7235.36,0.78123
7326.481,0.796844
7419.922,0.793846
7515.774,0.799725
7614.131,0.8078073
7715.093,0.811973
7818.764,0.815955
7925.254,0.82278
8034.682,0.828125
8147.169,0.8335774
8262.847,0.836572
8381.852,0.840008
8504.331,0.842811
8630.437,0.845507
8760.335,0.84801
8894.198,0.850531
9032.21,0.852324
9174.568,0.8535407
9321.48,0.854912
9473.167,0.857463
9629.868,0.8602975
9791.834,0.863663
9959.336,0.86681
10132.662,0.869437
10312.121,0.8724034
10498.045,0.875108
10690.79,0.876589
10890.738,0.875476
11098.301,0.87369
11313.921,0.873917
11538.079,0.8764359
11771.29,0.877885
12014.114,0.879139
12267.16,0.87793
12531.086,0.878879
12806.608,0.878926
13094.51,0.8789564
13395.644,0.878589
13710.943,0.879164
14041.433,0.876042
14388.237,0.866027
14752.594,0.839157
15135.871,0.765403
15539.583,0.567
15965.407,0.348237

File: FTIR_LNR_3_1.csv
Database of Origin,University of Winnipeg Spectrophotometer Facility
Sample Description,Lunar samples/ analogues and glasses - D and P 102F FTIR spectra (from PSF) NASA Apollo lunar samples
Other Information,diffuse gold puck 100 spectra averaged
Date Added,2018-07-23 21:03:11.3153

Data ID,FTIR_LNR_3_1
Sample ID,apollo 15  ID# 15041 71 20
Grain Size,<1mm?
Viewing Geometry,i=30/ e=0
Resolution,3 cm-1
Composition,regolith sample

Wavelength
2.001142,49.9715
2.008155,49.797
2.015217,49.6224
2.022328,49.448
2.029488,49.2735
2.036698,49.0991
2.043959,48.9247
2.051271,48.7503
2.058635,48.5759
2.066051,48.4015
2.073519,48.2272
2.081041,48.0529
2.088617,47.8786
2.096247,47.7043
2.103932,47.5301
2.111673,47.3558
2.119471,47.1816
2.127325,47.0074
2.135237,46.8332
2.143207,46.659
2.151235,46.4849
2.159324,46.3108
2.167472,46.1367
2.175682,45.9626
2.183952,45.7886
2.192285,45.6145
2.200682,45.4405
2.209141,45.2665
2.217665,45.0925
2.226254,44.9185
2.23491,44.7445
2.243631,44.5706
2.252421,44.3967
2.261278,44.2228
2.270204,44.0489
2.279201,43.875
2.288268,43.7012
2.297406,43.5274
2.306617,43.3535
2.315901,43.1797
2.325259,43.006
2.334692,42.8322
2.344201,42.6585
2.353787,42.4847
2.363451,42.311
2.373194,42.1373
2.383016,41.9636
2.392919,41.79
2.402903,41.6163
2.412971,41.4427
2.423122,41.2691
2.433358,41.0955
2.443679,40.9219
2.454088,40.7483
2.464585,40.5748
2.475171,40.4012
2.485847,40.2277
2.496615,40.0542
2.507476,39.8807
2.518431,39.7073
2.52948,39.5338
2.540627,39.3604
2.55187,39.1869
2.563213,39.0135
2.574656,38.8401
2.586201,38.6668
2.597849,38.4934
2.609601,38.32
2.621459,38.1467
2.633424,37.9734
2.645498,37.8001
2.657682,37.6268
2.669978,37.4535
2.682387,37.2802
2.694911,37.107
2.707552,36.9337
2.72031,36.7605
2.733188,36.5873
2.746188,36.4141
2.759311,36.2409
2.772559,36.0678
2.785934,35.8946
2.799437,35.7215
2.813071,35.5483
2.826837,35.3752
2.840737,35.2021
2.854774,35.029
2.868949,34.856
2.883265,34.6829
2.897723,34.5099
2.912325,34.3368
2.927075,34.1638
2.941973,33.9908
2.957023,33.8178
2.972226,33.6448
2.987586,33.4718
3.003103,33.2989
3.018782,33.1259
3.034624,32.953
3.050632,32.7801
3.066809,32.6072
3.083157,32.4343
3.099679,32.2614
3.116378,32.0885
3.133257,31.9157
3.150319,31.7428
3.167566,31.57
3.185001,31.3972
3.202629,31.2243
3.220451,31.0516
3.238472,30.8788
3.256694,30.706
3.275122,30.5332
3.293757,30.3605
3.312605,30.1877
3.331669,30.015
3.350952,29.8423
3.370458,29.6696
3.390191,29.4969
3.410156,29.3242
3.430355,29.1515
3.450794,28.9788
3.471477,28.8062
3.492408,28.6335
3.513592,28.4609
3.535032,28.2883
3.556735,28.1157
3.578704,27.9431
3.600946,27.7705
3.623463,27.5979
3.646263,27.4253
3.669351,27.2528
3.692731,27.0802
3.716409,26.9077
3.740392,26.7352
3.764685,26.5626
3.789294,26.3901
3.814225,26.2176
3.839486,26.0452
3.865081,25.8727
3.891019,25.7002
3.917305,25.5278
3.943948,25.3553
3.970954,25.1829
3.99833,25.0104
4.026086,24.838
4.054228,24.6656
4.082764,24.4932
4.111703,24.3208
4.141054,24.1484
4.170826,23.9761
4.201026,23.8037
4.231666,23.6314
4.262754,23.459
4.294301,23.2867
4.326317,23.1143
4.358811,22.942
4.391796,22.7697
4.425282,22.5974
4.459281,22.4251
4.493805,22.2529
4.528865,22.0806
4.564475,21.9083
4.600648,21.7361
4.637397,21.5638
4.674735,21.3916
4.712678,21.2194
4.75124,21.0471
4.790436,20.8749
4.830283,20.7027
4.870795,20.5305
4.911991,20.3583
4.953888,20.1862
4.996504,20.014
5.039857,19.8418
5.083967,19.6697
5.128854,19.4975
5.174538,19.3254
5.221041,19.1533
5.268386,18.9811
5.316595,18.809
5.365692,18.6369
5.415701,18.4648
5.46665,18.2927
5.518564,18.1207
5.57147,17.9486
5.625399,17.7765
5.680379,17.6045
5.736443,17.4324
5.793621,17.2604
5.851948,17.0883
5.911459,16.9163
5.97219,16.7443
6.034179,16.5723
6.097466,16.4003
6.162091,16.2283
6.228099,16.0563
6.295533,15.8843
6.36444,15.7123
6.434869,15.5403
6.506872,15.3684
6.580501,15.1964
6.655812,15.0245
6.732864,14.8525
6.811718,14.6806
6.892437,14.5087
6.975089,14.3367
7.059743,14.1648
7.146475,13.9929
7.23536,13.821
7.326481,13.6491
7.419922,13.4772
7.515774,13.3053
7.614131,13.1335
7.715093,12.9616
7.818764,12.7897
7.925254,12.6179
8.034682,12.446
8.147169,12.2742
8.262847,12.1024
8.381852,11.9305
8.504331,11.7587
8.630437,11.5869
8.760335,11.4151
8.894198,11.2433
9.03221,11.0715
9.174568,10.8997
9.32148,10.7279
9.473167,10.5561
9.629868,10.3844
9.791834,10.2126
9.959336,10.0408
10.1327,9.86907
10.3121,9.69733
10.498,9.52558
10.69079,9.35385
10.8907,9.18211
11.0983,9.01039
11.3139,8.83867
11.5381,8.66695
11.77129,8.49525
12.0141,8.32354
12.26716,8.15185
12.5311,7.98015
12.8066,7.80847
13.09451,7.63679
13.3956,7.46511
13.7109,7.29344
14.0414,7.12178
14.3882,6.95012
14.7526,6.77847
15.1359,6.60682
15.5396,6.43518
15.9654,6.26354

File: FTIR_LNR_3_2.csv
Database of Origin,University of Winnipeg Spectrophotometer Facility
Sample Description,Lunar samples/ analogues and glasses - D and P 102F FTIR spectra (from PSF) NASA Apollo lunar samples
Other Information,diffuse gold puck 100 spectra averaged
Date Added,2018-07-23 21:03:11.3623

Data ID,FTIR_LNR_3_2
Sample ID,apollo 15 ID# 15041 64 20
Grain Size,<1mm?
Viewing Geometry,i=30/ e=0
Resolution,3 cm-1
Composition,regolith sample

Wavelength
2.001142,0.196942
2.008155,0.197129
2.015217,0.19765
2.022328,0.197332
2.029488,0.198459
2.036698,0.1989
2.043959,0.200212
2.051271,0.20175
2.058635,0.202288
2.066051,0.203744
2.073519,0.205004
2.081041,0.205189
2.088617,0.206559
2.096247,0.207745
2.103932,0.207823
2.111673,0.208838
2.119471,0.210283
2.127325,0.211046
2.135237,0.212019
2.143207,0.212254
2.151235,0.213288
2.159324,0.214585
2.167472,0.215962
2.175682,0.217345
2.183952,0.218283
2.192285,0.218902
2.200682,0.220591
2.209141,0.222068
2.217665,0.222763
2.226254,0.223232
2.23491,0.223837
2.243631,0.226313
2.252421,0.226556
2.261278,0.227227
2.270204,0.228402
2.279201,0.228927
2.288268,0.230149
2.297406,0.231396
2.306617,0.233019
2.315901,0.232951
2.325259,0.233704
2.334692,0.2348
2.344201,0.236062
2.353787,0.237602
2.363451,0.237758
2.373194,0.238608
2.383016,0.240381
2.392919,0.241413
2.402903,0.241763
2.412971,0.243276
2.423122,0.244346
2.433358,0.245194
2.443679,0.24708
2.454088,0.24767
2.464585,0.249231
2.475171,0.250651
2.485847,0.251976
2.496615,0.253439
2.507476,0.254548
2.518431,0.256859
2.52948,0.257858
2.540627,0.259075
2.55187,0.2629387
2.563213,0.26635
2.574656,0.264724
2.586201,0.266611
2.597849,0.264752
2.609601,0.268745
2.621459,0.272576
2.633424,0.270929
2.645498,0.271904
2.657682,0.271472
2.669978,0.285223
2.682387,0.272978
2.694911,0.277899
2.707552,0.270934
2.72031,0.276815
2.733188,0.2601
2.746188,0.254903
2.759311,0.249957
2.772559,0.250821
2.785934,0.248951
2.799437,0.246876
2.813071,0.247147
2.826837,0.248386
2.840737,0.2484751
2.854774,0.250303
2.868949,0.249973
2.883265,0.24971
2.897723,0.25055
2.912325,0.251037
2.927075,0.251251
2.941973,0.252068
2.957023,0.253569
2.972226,0.252808
2.987586,0.253781
3.003103,0.257235
3.018782,0.257319
3.034624,0.261672
3.050632,0.261377
3.066809,0.263837
3.083157,0.26472
3.099679,0.266786
3.116378,0.266938
3.133257,0.267718
3.150319,0.268693
3.167566,0.270589
3.185001,0.271931
3.202629,0.273808
3.220451,0.276133
3.238472,0.277196
3.256694,0.280374
3.275122,0.279711
3.293757,0.281267
3.312605,0.282534
3.331669,0.286251
3.350952,0.28635
3.370458,0.286058
3.390191,0.288785
3.410156,0.289514
3.430355,0.292902
3.450794,0.295216
3.471477,0.2975
3.492408,0.302458
3.513592,0.304611
3.535032,0.30878
3.556735,0.310629
3.578704,0.314364
3.600946,0.318462
3.623463,0.321201
3.646263,0.324335
3.669351,0.329224
3.692731,0.334747
3.716409,0.340439
3.740392,0.344411
3.764685,0.3488
3.789294,0.354336
3.814225,0.361062
3.839486,0.366148
3.865081,0.3711
3.891019,0.375708
3.917305,0.382023
3.943948,0.388448
3.970954,0.395734
3.99833,0.401891
4.026086,0.408294
4.054228,0.417354
4.082764,0.426828
4.111703,0.436685
4.141054,0.446382
4.170826,0.45798
4.201026,0.470595
4.231666,0.489396
4.262754,0.498491
4.294301,0.513662
4.326317,0.52579
4.358811,0.540942
4.391796,0.556501
4.425282,0.574316
4.459281,0.589916
4.493805,0.603672
4.528865,0.613693
4.564475,0.625294
4.600648,0.637706
4.637397,0.64865
4.674735,0.662227
4.712678,0.677189
4.75124,0.692099
4.790436,0.707094
4.830283,0.718128
4.870795,0.7261
4.911991,0.731657
4.953888,0.737866
4.996504,0.74424
5.039857,0.751469
5.083967,0.759238
5.128854,0.765305
5.174538,0.771709
5.221041,0.780986
5.268386,0.78851
5.316595,0.796801
5.365692,0.810028
5.415701,0.847252
5.46665,0.987587
5.518564,0.700044
5.57147,0.50925
5.625399,0.605928
5.680379,0.651778
5.736443,0.683281
5.793621,0.704917
5.851948,0.724882
5.911459,0.739642
5.97219,0.751844
6.034179,0.761656
6.097466,0.769174
6.162091,0.779381
6.228099,0.793587
6.295533,0.804348
6.36444,0.815178
6.434869,0.825035
6.506872,0.833417
6.580501,0.848871
6.655812,0.8547
6.732864,0.863712
6.811718,0.870567
6.892437,0.876588
6.975089,0.88186
7.059743,0.889419
7.146475,0.898356
7.23536,0.904929
7.326481,0.913692
7.419922,0.918715
7.515774,0.925661
7.614131,0.931382
7.715093,0.935979
7.818764,0.941919
7.925254,0.948299
8.034682,0.956718
8.147169,0.962209
8.262847,0.967026
8.381852,0.972628
8.504331,0.978043
8.630437,0.980173
8.760335,0.982881
8.894198,0.988002
9.03221,0.992192
9.174568,0.991224
9.32148,0.990514
9.473167,0.99393
9.629868,0.998924
9.791834,0.0100242
9.959336,0.0100326
10.1327,0.0100474
10.3121,0.0100774
10.498,0.0101031
10.69079,0.0100953
10.8907,0.0100711
11.0983,0.0100587
11.3139,0.0100715
11.5381,0.0100406
11.77129,0.0100035
12.0141,0.0100019
12.26716,0.998262
12.5311,0.997676
12.8066,0.997043
13.09451,0.992141
13.3956,0.992798
13.7109,0.988695
14.0414,0.978719
14.3882,0.96147
14.7526,0.922757
15.1359,0.833699
15.5396,0.625243
15.9654,0.347749

File: FTIR_LNR_3_3.csv
Database of Origin,University of Winnipeg Spectrophotometer Facility
Sample Description,Lunar samples/ analogues and glasses - D and P 102F FTIR spectra (from PSF) NASA Apollo lunar samples
Other Information,diffuse gold puck 100 spectra averaged
Date Added,2018-07-23 21:03:11.3862

Data ID,FTIR_LNR_3_3
Sample ID,apollo 16 ID# 61221 176 25
Grain Size,<1mm?
Viewing Geometry,i=30/ e=0
Resolution,3 cm-1
Composition,regolith sample

Wavelength
2.001142,0.189056
2.008155,0.188821
2.015217,0.190516
2.022328,0.189658
2.029488,0.19076
2.036698,0.191726
2.043959,0.192092
2.051271,0.193629
2.058635,0.194158
2.066051,0.195474
2.073519,0.196437
2.081041,0.197314
2.088617,0.198844
2.096247,0.1995621
2.103932,0.199487
2.111673,0.199437
2.119471,0.20089
2.127325,0.202122
2.135237,0.202655
2.143207,0.203486
2.151235,0.204148
2.159324,0.205181
2.167472,0.206409
2.175682,0.206996
2.183952,0.208449
2.192285,0.209851
2.200682,0.210794
2.209141,0.211766
2.217665,0.2133715
2.226254,0.214263
2.23491,0.214457
2.243631,0.216212
2.252421,0.216539
2.261278,0.217132
2.270204,0.218033
2.279201,0.21932
2.288268,0.22014
2.297406,0.220659
2.306617,0.222531
2.315901,0.223374
2.325259,0.223755
2.334692,0.225625
2.344201,0.226008
2.353787,0.226899
2.363451,0.227003
2.373194,0.228271
2.383016,0.228897
2.392919,0.230247
2.402903,0.230642
2.412971,0.231667
2.423122,0.232237
2.433358,0.233818
2.443679,0.235105
2.454088,0.235687
2.464585,0.237038
2.475171,0.238672
2.485847,0.239896
2.496615,0.242285
2.507476,0.243528
2.518431,0.245391
2.52948,0.246724
2.540627,0.24873
2.55187,0.253273
2.563213,0.257727
2.574656,0.256534
2.586201,0.257606
2.597849,0.254875
2.609601,0.258912
2.621459,0.263898
2.633424,0.260744
2.645498,0.262103
2.657682,0.261555
2.669978,0.275242
2.682387,0.262767
2.694911,0.268412
2.707552,0.258632
2.72031,0.261015
2.733188,0.242239
2.746188,0.237035
2.759311,0.232379
2.772559,0.232865
2.785934,0.229949
2.799437,0.228087
2.813071,0.227568
2.826837,0.22849
2.840737,0.228638
2.854774,0.229291
2.868949,0.229182
2.883265,0.228868
2.897723,0.229972
2.912325,0.229853
2.927075,0.22993
2.941973,0.231019
2.957023,0.23289
2.972226,0.231642
2.987586,0.231829
3.003103,0.235298
3.018782,0.234623
3.034624,0.240261
3.050632,0.239337
3.066809,0.242926
3.083157,0.243571
3.099679,0.245182
3.116378,0.244952
3.133257,0.245894
3.150319,0.246967
3.167566,0.248595
3.185001,0.250513
3.202629,0.252628
3.220451,0.256021
3.238472,0.255633
3.256694,0.260199
3.275122,0.258436
3.293757,0.260788
3.312605,0.261672
3.331669,0.26632
3.350952,0.266345
3.370458,0.265097
3.390191,0.267455
3.410156,0.269566
3.430355,0.273358
3.450794,0.277086
3.471477,0.280151
3.492408,0.286319
3.513592,0.288483
3.535032,0.29442
3.556735,0.295832
3.578704,0.299822
3.600946,0.30415
3.623463,0.307871
3.646263,0.311802
3.669351,0.317863
3.692731,0.323544
3.716409,0.330536
3.740392,0.337201
3.764685,0.344237
3.789294,0.351926
3.814225,0.360318
3.839486,0.367515
3.865081,0.375153
3.891019,0.383729
3.917305,0.39213
3.943948,0.40162
3.970954,0.412628
3.99833,0.422487
4.026086,0.432914
4.054228,0.44514
4.082764,0.458497
4.111703,0.473872
4.141054,0.490024
4.170826,0.50739
4.201026,0.525444
4.231666,0.548935
4.262754,0.565695
4.294301,0.587646
4.326317,0.608097
4.358811,0.630728
4.391796,0.653491
4.425282,0.678965
4.459281,0.701023
4.493805,0.720529
4.528865,0.737057
4.564475,0.754738
4.600648,0.773131
4.637397,0.790596
4.674735,0.810569
4.712678,0.833145
4.75124,0.856751
4.790436,0.878728
4.830283,0.896624
4.870795,0.910539
4.911991,0.921437
4.953888,0.9324769
4.996504,0.9421854
5.039857,0.952927
5.083967,0.964014
5.128854,0.974123
5.174538,0.983287
5.221041,0.99509
5.268386,0.0100507
5.316595,0.0101545
5.365692,0.0102403
5.415701,0.010436
5.46665,0.0117663
5.518564,0.723615
5.57147,0.656343
5.625399,0.77299
5.680379,0.820443
5.736443,0.853832
5.793621,0.877316
5.851948,0.895164
5.911459,0.917068
5.97219,0.928749
6.034179,0.937674
6.097466,0.94128
6.162091,0.947502
6.228099,0.966155
6.295533,0.980708
6.36444,0.98525
6.434869,0.99448
6.506872,0.0100856
6.580501,0.0101756
6.655812,0.0103149
6.732864,0.0103954
6.811718,0.0104476
6.892437,0.0105262
6.975089,0.0106309
7.059743,0.0107238
7.146475,0.0107605
7.23536,0.0108444
7.326481,0.0109057
7.419922,0.0110017
7.515774,0.0110745
7.614131,0.0111488
7.715093,0.0112217
7.818764,0.0113033
7.925254,0.0113706
8.034682,0.0114861
8.147169,0.0115767
8.262847,0.0116596
8.381852,0.0117098
8.504331,0.0117749
8.630437,0.0118204
8.760335,0.0118576
8.894198,0.011873
9.03221,0.0119025
9.174568,0.0118951
9.32148,0.0119264
9.473167,0.0119436
9.629868,0.0119355
9.791834,0.0119315
9.959336,0.0119409
10.1327,0.0119285
10.3121,0.0119002
10.498,0.0118752
10.69079,0.0118516
10.8907,0.0118333
11.0983,0.0118064
11.3139,0.0117604
11.5381,0.0117142
11.77129,0.0116554
12.0141,0.0115841
12.26716,0.011519
12.5311,0.0114803
12.8066,0.0114724
13.09451,0.011402
13.3956,0.0113242
13.7109,0.0112168
14.0414,0.0111061
14.3882,0.0109464
14.7526,0.0106148
15.1359,0.973922
15.5396,0.743545
15.9654,0.42569

File: FTIR_LNR_3_4.csv
Database of Origin,University of Winnipeg Spectrophotometer Facility
Sample Description,Lunar samples/ analogues and glasses - D and P 102F FTIR spectra (from PSF) NASA Apollo lunar samples
Other Information,diffuse gold puck 100 spectra averaged
Date Added,2018-07-23 21:03:11.417

Data ID,FTIR_LNR_3_4
Sample ID,apollo 16 ID# 61221 177 25
Grain Size,<1mm?
Viewing Geometry,i=30/ e=0
Resolution,3 cm-1
Composition,regolith sample

Wavelength
2.001142,0.459296
2.008155,0.458934
2.015217,0.459064
2.022328,0.458701
2.029488,0.458275
2.036698,0.458583
2.043959,0.459188
2.051271,0.458866
2.058635,0.460067
2.066051,0.46117
2.073519,0.461159
2.081041,0.462274
2.088617,0.462437
2.096247,0.46271
2.103932,0.463474
2.111673,0.463942
2.119471,0.465262
2.127325,0.466112
2.135237,0.466612
2.143207,0.467487
2.151235,0.468207
2.159324,0.468833
2.167472,0.469782
2.175682,0.470937
2.183952,0.4711
2.192285,0.470512
2.200682,0.472924
2.209141,0.474542
2.217665,0.475041
2.226254,0.475503
2.23491,0.476226
2.243631,0.47906
2.252421,0.477745
2.261278,0.478339
2.270204,0.479837
2.279201,0.480642
2.288268,0.480676
2.297406,0.481333
2.306617,0.483899
2.315901,0.483434
2.325259,0.48378
2.334692,0.484663
2.344201,0.485505
2.353787,0.485269
2.363451,0.485264
2.373194,0.486043
2.383016,0.487266
2.392919,0.487916
2.402903,0.488131
2.412971,0.488325
2.423122,0.489204
2.433358,0.490425
2.443679,0.491923
2.454088,0.490837
2.464585,0.49137
2.475171,0.491027
2.485847,0.492373
2.496615,0.49378
2.507476,0.494099
2.518431,0.495343
2.52948,0.495592
2.540627,0.496783
2.55187,0.501644
2.563213,0.505389
2.574656,0.503577
2.586201,0.504005
2.597849,0.501523
2.609601,0.504862
2.621459,0.509438
2.633424,0.505013
2.645498,0.505027
2.657682,0.503475
2.669978,0.516022
2.682387,0.502139
2.694911,0.506947
2.707552,0.498085
2.72031,0.50469
2.733188,0.484172
2.746188,0.477387
2.759311,0.468864
2.772559,0.46825
2.785934,0.462187
2.799437,0.459326
2.813071,0.457867
2.826837,0.45755
2.840737,0.45604
2.854774,0.456787
2.868949,0.454108
2.883265,0.452669
2.897723,0.451658
2.912325,0.449673
2.927075,0.44852
2.941973,0.44836
2.957023,0.449111
2.972226,0.448365
2.987586,0.449317
3.003103,0.452134
3.018782,0.452519
3.034624,0.456764
3.050632,0.45629
3.066809,0.458947
3.083157,0.460007
3.099679,0.460973
3.116378,0.461589
3.133257,0.462856
3.150319,0.464478
3.167566,0.466888
3.185001,0.467957
3.202629,0.471022
3.220451,0.474225
3.238472,0.476267
3.256694,0.479908
3.275122,0.479379
3.293757,0.481487
3.312605,0.483163
3.331669,0.486739
3.350952,0.48707
3.370458,0.489191
3.390191,0.49253
3.410156,0.497335
3.430355,0.500465
3.450794,0.499383
3.471477,0.50183
3.492408,0.506869
3.513592,0.509315
3.535032,0.511374
3.556735,0.512472
3.578704,0.515226
3.600946,0.51782
3.623463,0.519934
3.646263,0.522941
3.669351,0.526931
3.692731,0.531024
3.716409,0.534926
3.740392,0.540059
3.764685,0.543906
3.789294,0.548524
3.814225,0.552985
3.839486,0.556802
3.865081,0.56012
3.891019,0.564195
3.917305,0.568348
3.943948,0.573691
3.970954,0.580286
3.99833,0.584954
4.026086,0.590659
4.054228,0.596678
4.082764,0.604264
4.111703,0.61239
4.141054,0.62058
4.170826,0.62987
4.201026,0.640098
4.231666,0.656009
4.262754,0.661741
4.294301,0.673488
4.326317,0.682864
4.358811,0.693462
4.391796,0.705549
4.425282,0.721171
4.459281,0.73543
4.493805,0.746787
4.528865,0.756065
4.564475,0.764974
4.600648,0.776116
4.637397,0.784834
4.674735,0.795115
4.712678,0.812197
4.75124,0.828059
4.790436,0.84303
4.830283,0.855775
4.870795,0.865883
4.911991,0.873276
4.953888,0.880813
4.996504,0.888312
5.039857,0.896105
5.083967,0.904647
5.128854,0.91284
5.174538,0.9203
5.221041,0.930012
5.268386,0.938896
5.316595,0.948246
5.365692,0.956772
5.415701,0.976516
5.46665,0.0109521
5.518564,0.667979
5.57147,0.648804
5.625399,0.748846
5.680379,0.789329
5.736443,0.818596
5.793621,0.838704
5.851948,0.856832
5.911459,0.876313
5.97219,0.887253
6.034179,0.8983
6.097466,0.902545
6.162091,0.908613
6.228099,0.92508
6.295533,0.937221
6.36444,0.941938
6.434869,0.950563
6.506872,0.964067
6.580501,0.972375
6.655812,0.985905
6.732864,0.992731
6.811718,0.99756
6.892437,0.0100407
6.975089,0.0101394
7.059743,0.0102225
7.146475,0.0102591
7.23536,0.0103548
7.326481,0.0104208
7.419922,0.0105103
7.515774,0.0105801
7.614131,0.0106502
7.715093,0.010719
7.818764,0.01079
7.925254,0.0108414
8.034682,0.0109487
8.147169,0.0110311
8.262847,0.0111132
8.381852,0.0111656
8.504331,0.0112308
8.630437,0.0112832
8.760335,0.0113248
8.894198,0.0113395
9.03221,0.0113701
9.174568,0.0113729
9.32148,0.0114004
9.473167,0.0114155
9.629868,0.0114089
9.791834,0.0114175
9.959336,0.0114447
10.1327,0.0114447
10.3121,0.0114257
10.498,0.0114009
10.69079,0.0113817
10.8907,0.0113597
11.0983,0.0113233
11.3139,0.0112682
11.5381,0.0112282
11.77129,0.0111567
12.0141,0.0110976
12.26716,0.0110317
12.5311,0.0109766
12.8066,0.0110397
13.09451,0.0109912
13.3956,0.0109299
13.7109,0.010831
14.0414,0.0107277
14.3882,0.0105674
14.7526,0.0102325
15.1359,0.935451
15.5396,0.699422
15.9654,0.398282