Folder: wwu_spec/csv_library (part 7)

File: FTIR_LNR_3_10.csv
Database of Origin,University of Winnipeg Spectrophotometer Facility
Sample Description,Lunar samples/ analogues and glasses - D and P 102F FTIR spectra (from PSF) NASA Apollo lunar samples
Other Information,diffuse gold puck 100 spectra averaged
Date Added,2018-07-23 21:03:11.6142

Data ID,FTIR_LNR_3_10
Sample ID,apollo 12 ID# 12030 185 7
Grain Size,<1mm?
Viewing Geometry,i=30/ e=0
Resolution,3 cm-1
Composition,regolith sample

Wavelength
2.001142,0.245871
2.008155,0.245621
2.015217,0.245703
2.022328,0.245967
2.029488,0.245731
2.036698,0.246155
2.043959,0.246686
2.051271,0.247203
2.058635,0.248809
2.066051,0.249445
2.073519,0.24963
2.081041,0.249578
2.088617,0.250824
2.096247,0.251195
2.103932,0.250989
2.111673,0.251326
2.119471,0.25168
2.127325,0.253146
2.135237,0.254174
2.143207,0.254502
2.151235,0.254777
2.159324,0.256163
2.167472,0.257169
2.175682,0.258107
2.183952,0.259221
2.192285,0.26036
2.200682,0.261341
2.209141,0.26301
2.217665,0.263561
2.226254,0.265069
2.23491,0.265635
2.243631,0.267176
2.252421,0.267627
2.261278,0.268509
2.270204,0.269732
2.279201,0.271163
2.288268,0.272595
2.297406,0.272678
2.306617,0.274654
2.315901,0.274969
2.325259,0.275403
2.334692,0.276224
2.344201,0.277356
2.353787,0.278032
2.363451,0.279043
2.373194,0.280273
2.383016,0.281014
2.392919,0.281863
2.402903,0.282754
2.412971,0.283688
2.423122,0.284521
2.433358,0.285384
2.443679,0.287833
2.454088,0.28794
2.464585,0.288446
2.475171,0.289124
2.485847,0.290513
2.496615,0.292099
2.507476,0.29303
2.518431,0.294974
2.52948,0.296043
2.540627,0.297472
2.55187,0.300676
2.563213,0.304527
2.574656,0.303994
2.586201,0.305008
2.597849,0.30355
2.609601,0.306677
2.621459,0.31085
2.633424,0.308611
2.645498,0.309619
2.657682,0.309083
2.669978,0.320185
2.682387,0.309391
2.694911,0.313632
2.707552,0.306015
2.72031,0.308269
2.733188,0.292804
2.746188,0.28752
2.759311,0.282995
2.772559,0.283283
2.785934,0.28068
2.799437,0.279035
2.813071,0.278721
2.826837,0.278569
2.840737,0.277594
2.854774,0.2783329
2.868949,0.277334
2.883265,0.277294
2.897723,0.277278
2.912325,0.27667
2.927075,0.276291
2.941973,0.276616
2.957023,0.278181
2.972226,0.277458
2.987586,0.277908
3.003103,0.280949
3.018782,0.280784
3.034624,0.285103
3.050632,0.284016
3.066809,0.286478
3.083157,0.286339
3.099679,0.287143
3.116378,0.286808
3.133257,0.287322
3.150319,0.288236
3.167566,0.289215
3.185001,0.289963
3.202629,0.292018
3.220451,0.295315
3.238472,0.29461
3.256694,0.298584
3.275122,0.296704
3.293757,0.298162
3.312605,0.299878
3.331669,0.30326
3.350952,0.303144
3.370458,0.303888
3.390191,0.306134
3.410156,0.309368
3.430355,0.311258
3.450794,0.312086
3.471477,0.31441
3.492408,0.319217
3.513592,0.320726
3.535032,0.323984
3.556735,0.325533
3.578704,0.328472
3.600946,0.331788
3.623463,0.334445
3.646263,0.337473
3.669351,0.341348
3.692731,0.345844
3.716409,0.351048
3.740392,0.355875
3.764685,0.36124
3.789294,0.367332
3.814225,0.373655
3.839486,0.379607
3.865081,0.385462
3.891019,0.391824
3.917305,0.39892
3.943948,0.406407
3.970954,0.416046
3.99833,0.424384
4.026086,0.432575
4.054228,0.44192
4.082764,0.452683
4.111703,0.465171
4.141054,0.478189
4.170826,0.4925
4.201026,0.506777
4.231666,0.528456
4.262754,0.540926
4.294301,0.559301
4.326317,0.576734
4.358811,0.595558
4.391796,0.614817
4.425282,0.636915
4.459281,0.655868
4.493805,0.671519
4.528865,0.685497
4.564475,0.700338
4.600648,0.715323
4.637397,0.730251
4.674735,0.746482
4.712678,0.765766
4.75124,0.785647
4.790436,0.803359
4.830283,0.817074
4.870795,0.828315
4.911991,0.836808
4.953888,0.845538
4.996504,0.8536
5.039857,0.862562
5.083967,0.871959
5.128854,0.880486
5.174538,0.888011
5.221041,0.897979
5.268386,0.90746
5.316595,0.917555
5.365692,0.930152
5.415701,0.962583
5.46665,0.0109757
5.518564,0.663878
5.57147,0.628619
5.625399,0.728759
5.680379,0.773528
5.736443,0.802095
5.793621,0.822562
5.851948,0.839702
5.911459,0.857053
5.97219,0.868341
6.034179,0.879211
6.097466,0.88225
6.162091,0.887584
6.228099,0.902444
6.295533,0.913564
6.36444,0.919548
6.434869,0.927861
6.506872,0.940421
6.580501,0.948094
6.655812,0.961679
6.732864,0.968027
6.811718,0.974163
6.892437,0.980437
6.975089,0.989009
7.059743,0.996655
7.146475,0.010012
7.23536,0.0100914
7.326481,0.0101586
7.419922,0.010232
7.515774,0.0102948
7.614131,0.010356
7.715093,0.0104167
7.818764,0.0104818
7.925254,0.0105294
8.034682,0.0106289
8.147169,0.0106999
8.262847,0.0107646
8.381852,0.0108055
8.504331,0.0108634
8.630437,0.0109046
8.760335,0.0109344
8.894198,0.0109509
9.03221,0.0109716
9.174568,0.0109654
9.32148,0.010985
9.473167,0.0110039
9.629868,0.0110122
9.791834,0.0110269
9.959336,0.0110527
10.1327,0.0110622
10.3121,0.0110571
10.498,0.0110479
10.69079,0.0110296
10.8907,0.0110117
11.0983,0.0109759
11.3139,0.0109354
11.5381,0.0109043
11.77129,0.0108579
12.0141,0.0108152
12.26716,0.0107525
12.5311,0.0107144
12.8066,0.0107407
13.09451,0.0106922
13.3956,0.0106337
13.7109,0.0105424
14.0414,0.0104344
14.3882,0.0102663
14.7526,0.989694
15.1359,0.893835
15.5396,0.662942
15.9654,0.359224

File: FTIR_LNR_3_11.csv
Database of Origin,University of Winnipeg Spectrophotometer Facility
Sample Description,Lunar samples/ analogues and glasses - D and P 102F FTIR spectra (from PSF) NASA Apollo lunar samples
Other Information,diffuse gold puck 100 spectra averaged
Date Added,2018-07-23 21:03:11.6432

Data ID,FTIR_LNR_3_11
Sample ID,apollo 16 ID# 64801 175 4
Grain Size,<1mm?
Viewing Geometry,i=30/ e=0
Resolution,3 cm-1
Composition,regolith sample

Wavelength
2.001142,0.265296
2.008155,0.2642128
2.015217,0.264848
2.022328,0.264434
2.029488,0.264135
2.036698,0.264677
2.043959,0.264467
2.051271,0.265948
2.058635,0.26595
2.066051,0.267127
2.073519,0.267952
2.081041,0.26801
2.088617,0.268801
2.096247,0.269328
2.103932,0.269677
2.111673,0.26993
2.119471,0.269386
2.127325,0.27103
2.135237,0.270663
2.143207,0.27128
2.151235,0.272132
2.159324,0.272584
2.167472,0.274929
2.175682,0.275964
2.183952,0.276111
2.192285,0.277016
2.200682,0.278189
2.209141,0.2801
2.217665,0.281074
2.226254,0.282369
2.23491,0.281502
2.243631,0.284043
2.252421,0.28466
2.261278,0.285737
2.270204,0.286917
2.279201,0.28777
2.288268,0.288801
2.297406,0.289043
2.306617,0.290548
2.315901,0.290892
2.325259,0.292064
2.334692,0.293167
2.344201,0.294393
2.353787,0.295494
2.363451,0.295876
2.373194,0.297909
2.383016,0.29879
2.392919,0.299837
2.402903,0.300966
2.412971,0.301986
2.423122,0.302196
2.433358,0.304157
2.443679,0.306286
2.454088,0.30696
2.464585,0.308235
2.475171,0.309798
2.485847,0.311376
2.496615,0.313382
2.507476,0.314402
2.518431,0.316227
2.52948,0.317368
2.540627,0.319468
2.55187,0.323399
2.563213,0.32748
2.574656,0.327371
2.586201,0.328381
2.597849,0.327153
2.609601,0.330321
2.621459,0.334979
2.633424,0.331825
2.645498,0.333209
2.657682,0.332605
2.669978,0.345483
2.682387,0.332845
2.694911,0.337719
2.707552,0.330375
2.72031,0.332422
2.733188,0.315629
2.746188,0.309924
2.759311,0.306128
2.772559,0.305821
2.785934,0.304486
2.799437,0.303079
2.813071,0.302638
2.826837,0.302767
2.840737,0.301965
2.854774,0.301885
2.868949,0.302568
2.883265,0.301403
2.897723,0.301613
2.912325,0.301009
2.927075,0.300435
2.941973,0.302717
2.957023,0.303584
2.972226,0.301826
2.987586,0.302495
3.003103,0.305233
3.018782,0.304951
3.034624,0.310079
3.050632,0.307435
3.066809,0.310452
3.083157,0.310737
3.099679,0.312064
3.116378,0.311758
3.133257,0.311824
3.150319,0.313276
3.167566,0.314425
3.185001,0.315693
3.202629,0.317172
3.220451,0.320635
3.238472,0.320203
3.256694,0.324106
3.275122,0.322056
3.293757,0.323844
3.312605,0.325296
3.331669,0.329193
3.350952,0.329714
3.370458,0.331167
3.390191,0.3329
3.410156,0.336672
3.430355,0.338937
3.450794,0.339689
3.471477,0.341706
3.492408,0.347883
3.513592,0.349055
3.535032,0.353226
3.556735,0.354109
3.578704,0.358159
3.600946,0.362327
3.623463,0.365318
3.646263,0.368873
3.669351,0.374159
3.692731,0.379228
3.716409,0.385601
3.740392,0.391772
3.764685,0.398627
3.789294,0.405534
3.814225,0.412813
3.839486,0.419459
3.865081,0.426904
3.891019,0.434787
3.917305,0.442571
3.943948,0.451613
3.970954,0.462509
3.99833,0.471745
4.026086,0.48055
4.054228,0.492178
4.082764,0.505124
4.111703,0.519278
4.141054,0.534637
4.170826,0.551172
4.201026,0.568798
4.231666,0.592085
4.262754,0.606985
4.294301,0.627538
4.326317,0.647721
4.358811,0.669802
4.391796,0.691895
4.425282,0.717874
4.459281,0.739744
4.493805,0.757451
4.528865,0.773359
4.564475,0.789317
4.600648,0.807231
4.637397,0.823879
4.674735,0.843077
4.712678,0.865348
4.75124,0.887943
4.790436,0.909212
4.830283,0.925853
4.870795,0.939012
4.911991,0.948812
4.953888,0.958741
4.996504,0.967967
5.039857,0.978281
5.083967,0.988599
5.128854,0.998228
5.174538,0.0100664
5.221041,0.0101796
5.268386,0.0102869
5.316595,0.0103967
5.365692,0.0105316
5.415701,0.0108785
5.46665,0.0124542
5.518564,0.742705
5.57147,0.678576
5.625399,0.803405
5.680379,0.85347
5.736443,0.886861
5.793621,0.908559
5.851948,0.927181
5.911459,0.947102
5.97219,0.95859
6.034179,0.969912
6.097466,0.972764
6.162091,0.977097
6.228099,0.996146
6.295533,0.0100853
6.36444,0.010126
6.434869,0.0102117
6.506872,0.0103462
6.580501,0.0104174
6.655812,0.0105694
6.732864,0.010636
6.811718,0.0106883
6.892437,0.0107598
6.975089,0.0108642
7.059743,0.0109336
7.146475,0.0109597
7.23536,0.0110426
7.326481,0.0110975
7.419922,0.0111804
7.515774,0.0112477
7.614131,0.0113088
7.715093,0.0113672
7.818764,0.011433
7.925254,0.0114796
8.034682,0.0115876
8.147169,0.011666
8.262847,0.0117429
8.381852,0.0117913
8.504331,0.0118587
8.630437,0.0119037
8.760335,0.0119345
8.894198,0.0119441
9.03221,0.0119678
9.174568,0.0119637
9.32148,0.0119898
9.473167,0.0120045
9.629868,0.011994
9.791834,0.0119882
9.959336,0.0119991
10.1327,0.0119859
10.3121,0.0119559
10.498,0.0119293
10.69079,0.0119024
10.8907,0.0118867
11.0983,0.0118521
11.3139,0.0118079
11.5381,0.0117569
11.77129,0.0116997
12.0141,0.0116252
12.26716,0.0115596
12.5311,0.0114997
12.8066,0.0115051
13.09451,0.0114377
13.3956,0.0113587
13.7109,0.0112465
14.0414,0.0111045
14.3882,0.0109179
14.7526,0.0105075
15.1359,0.952508
15.5396,0.705427
15.9654,0.397165

File: FTIR_LNR_3_12.csv
Database of Origin,University of Winnipeg Spectrophotometer Facility
Sample Description,Lunar samples/ analogues and glasses - D and P 102F FTIR spectra (from PSF) NASA Apollo lunar samples
Other Information,diffuse gold puck 100 spectra averaged
Date Added,2018-07-23 21:03:11.6731

Data ID,FTIR_LNR_3_12
Sample ID,apollo 16  ID# 64801 176 4
Grain Size,<1mm?
Viewing Geometry,i=30/ e=0
Resolution,3 cm-1
Composition,regolith sample

Wavelength
2.001142,0.385394
2.008155,0.385447
2.015217,0.385353
2.022328,0.385339
2.029488,0.38487
2.036698,0.385465
2.043959,0.385857
2.051271,0.385801
2.058635,0.386821
2.066051,0.387457
2.073519,0.387902
2.081041,0.387963
2.088617,0.38826
2.096247,0.389727
2.103932,0.389986
2.111673,0.390218
2.119471,0.390047
2.127325,0.392286
2.135237,0.392592
2.143207,0.393339
2.151235,0.392853
2.159324,0.394155
2.167472,0.395432
2.175682,0.396196
2.183952,0.396449
2.192285,0.397208
2.200682,0.399349
2.209141,0.400007
2.217665,0.401481
2.226254,0.401836
2.23491,0.403298
2.243631,0.404873
2.252421,0.405088
2.261278,0.405023
2.270204,0.406342
2.279201,0.407316
2.288268,0.408529
2.297406,0.408156
2.306617,0.410088
2.315901,0.410164
2.325259,0.411296
2.334692,0.411502
2.344201,0.412566
2.353787,0.413675
2.363451,0.413064
2.373194,0.413246
2.383016,0.414128
2.392919,0.414523
2.402903,0.415447
2.412971,0.41551
2.423122,0.416574
2.433358,0.417769
2.443679,0.419877
2.454088,0.418227
2.464585,0.419742
2.475171,0.420846
2.485847,0.421928
2.496615,0.423256
2.507476,0.424055
2.518431,0.426361
2.52948,0.426336
2.540627,0.428111
2.55187,0.432328
2.563213,0.434421
2.574656,0.43313
2.586201,0.433599
2.597849,0.430953
2.609601,0.434489
2.621459,0.438445
2.633424,0.435487
2.645498,0.436357
2.657682,0.434592
2.669978,0.448799
2.682387,0.433594
2.694911,0.437728
2.707552,0.429078
2.72031,0.432945
2.733188,0.411681
2.746188,0.402817
2.759311,0.393652
2.772559,0.391155
2.785934,0.386246
2.799437,0.382096
2.813071,0.3806
2.826837,0.381019
2.840737,0.379359
2.854774,0.379513
2.868949,0.379405
2.883265,0.378087
2.897723,0.378589
2.912325,0.378877
2.927075,0.378278
2.941973,0.379173
2.957023,0.381135
2.972226,0.380516
2.987586,0.381339
3.003103,0.385192
3.018782,0.385139
3.034624,0.390418
3.050632,0.389383
3.066809,0.393033
3.083157,0.393838
3.099679,0.395705
3.116378,0.396466
3.133257,0.397467
3.150319,0.399437
3.167566,0.40118
3.185001,0.403678
3.202629,0.406063
3.220451,0.410753
3.238472,0.411597
3.256694,0.416957
3.275122,0.415367
3.293757,0.418469
3.312605,0.420086
3.331669,0.424708
3.350952,0.426445
3.370458,0.429883
3.390191,0.43276
3.410156,0.439442
3.430355,0.442982
3.450794,0.443617
3.471477,0.446408
3.492408,0.453565
3.513592,0.45612
3.535032,0.459827
3.556735,0.461602
3.578704,0.466123
3.600946,0.470745
3.623463,0.475594
3.646263,0.480498
3.669351,0.486516
3.692731,0.492654
3.716409,0.499622
3.740392,0.506121
3.764685,0.51279
3.789294,0.5204161
3.814225,0.527766
3.839486,0.53484
3.865081,0.540818
3.891019,0.547895
3.917305,0.555747
3.943948,0.5637
3.970954,0.573789
3.99833,0.581989
4.026086,0.590395
4.054228,0.600955
4.082764,0.611554
4.111703,0.624883
4.141054,0.638477
4.170826,0.652965
4.201026,0.66878
4.231666,0.692352
4.262754,0.70408
4.294301,0.722276
4.326317,0.738457
4.358811,0.756905
4.391796,0.776358
4.425282,0.799382
4.459281,0.818247
4.493805,0.83348
4.528865,0.846884
4.564475,0.860309
4.600648,0.875753
4.637397,0.890109
4.674735,0.907551
4.712678,0.927643
4.75124,0.948899
4.790436,0.967601
4.830283,0.982155
4.870795,0.994174
4.911991,0.0100345
4.953888,0.0101246
4.996504,0.0102128
5.039857,0.0103073
5.083967,0.0104047
5.128854,0.0104978
5.174538,0.0105791
5.221041,0.0106866
5.268386,0.0107915
5.316595,0.0108998
5.365692,0.011039
5.415701,0.0113946
5.46665,0.0130389
5.518564,0.813947
5.57147,0.715914
5.625399,0.843538
5.680379,0.896593
5.736443,0.93094
5.793621,0.955701
5.851948,0.974559
5.911459,0.997658
5.97219,0.0100926
6.034179,0.0102253
6.097466,0.0102232
6.162091,0.0102569
6.228099,0.0104274
6.295533,0.0105544
6.36444,0.0105772
6.434869,0.0106603
6.506872,0.0108067
6.580501,0.010864
6.655812,0.0110445
6.732864,0.011109
6.811718,0.0111609
6.892437,0.011216
6.975089,0.0113289
7.059743,0.0114072
7.146475,0.0114225
7.23536,0.0115003
7.326481,0.0115584
7.419922,0.0116495
7.515774,0.0117181
7.614131,0.0117772
7.715093,0.0118374
7.818764,0.0119089
7.925254,0.0119536
8.034682,0.0120665
8.147169,0.0121648
8.262847,0.012259
8.381852,0.0123122
8.504331,0.0123854
8.630437,0.012428
8.760335,0.0124621
8.894198,0.0124743
9.03221,0.012507
9.174568,0.0125037
9.32148,0.0125337
9.473167,0.012537
9.629868,0.0125156
9.791834,0.0125007
9.959336,0.0124995
10.1327,0.0124705
10.3121,0.0124254
10.498,0.0123872
10.69079,0.0123553
10.8907,0.0123331
11.0983,0.0123006
11.3139,0.0122513
11.5381,0.0121946
11.77129,0.0121204
12.0141,0.0120302
12.26716,0.0119584
12.5311,0.0119048
12.8066,0.0118996
13.09451,0.0118175
13.3956,0.0117218
13.7109,0.0115899
14.0414,0.0114431
14.3882,0.0112352
14.7526,0.0108125
15.1359,0.976406
15.5396,0.729564
15.9654,0.403298

File: FTIR_MET_4_1.csv
Database of Origin,University of Winnipeg Spectrophotometer Facility
Sample Description,16. Meteorites. 16.1 Iron meteorites and components 16.1.2. UND samples.  (a) PSF D&P spectra
Other Information,only good to 4.3 um illum. spot larger than viewed spot (8mm)
Date Added,2018-07-23 23:32:11.4408

Data ID,FTIR_MET_4_1
Sample ID,Tucson
Mineral Name,Tucson
Grain Size,Slab
Viewing Geometry,i=30/ e=0
Resolution,6 cm-1
Composition,Rusty Side
Material Class,Iron Meteorite

Wavelength
2000.56,0.188917
2006.983,0.18798
2013.447,0.186705
2019.952,0.186124
2026.499,0.185281
2033.087,0.185073
2039.718,0.184514
2046.391,0.183849
2053.107,0.183725
2059.867,0.183602
2066.671,0.182706
2073.519,0.183048
2080.412,0.182797
2087.35,0.1827618
2094.334,0.18158
2101.364,0.18135
2108.441,0.180734
2115.565,0.179826
2122.736,0.179928
2129.956,0.179926
2137.224,0.179532
2144.541,0.179062
2151.907,0.179053
2159.324,0.1793038
2166.791,0.179469
2174.309,0.179749
2181.879,0.179548
2189.501,0.1797902
2197.175,0.1796654
2204.903,0.179778
2212.685,0.180205
2220.521,0.1795319
2228.412,0.179237
2236.359,0.178948
2244.361,0.178766
2252.421,0.178414
2260.537,0.177976
2268.712,0.177549
2276.945,0.17732
2285.237,0.177154
2293.59,0.177196
2302.002,0.176623
2310.476,0.176622
2319.012,0.1768719
2327.61,0.1772086
2336.272,0.177107
2344.997,0.177214
2353.787,0.177256
2362.643,0.177054
2371.564,0.177047
2380.553,0.17697
2389.609,0.176896
2398.733,0.176646
2407.926,0.17638
2417.19,0.1767628
2426.524,0.176789
2435.93,0.1769
2445.408,0.177371
2454.959,0.177219
2464.585,0.177235
2474.285,0.177699
2484.062,0.178055
2493.915,0.1785871
2503.845,0.1791326
2513.855,0.179315
2523.944,0.180222
2534.113,0.182427
2544.364,0.183194
2554.697,0.181858
2565.113,0.187542
2575.615,0.1900758
2586.201,0.192541
2596.874,0.195295
2607.635,0.194633
2618.485,0.19877
2629.424,0.197497
2640.454,0.186731
2651.576,0.1905792
2662.792,0.197254
2674.102,0.200625
2685.507,0.200219
2697.01,0.207662
2708.61,0.233896
2720.31,0.271546
2732.111,0.208212
2744.013,0.189288
2756.019,0.182537
2768.129,0.1618872
2780.345,0.148796
2792.669,0.137395
2805.102,0.135199
2817.645,0.124153
2830.299,0.117464
2843.067,0.112317
2855.95,0.108575
2868.949,0.104311
2882.066,0.101522
2895.303,0.0985927
2908.661,0.09680625
2922.142,0.09555535
2935.747,0.09360723
2949.479,0.0939072
2963.339,0.09164066
2977.328,0.09274194
2991.45,0.09183476
3005.705,0.0918832
3020.096,0.09212928
3034.624,0.09437689
3049.292,0.09400999
3064.101,0.09567082
3079.054,0.09650711
3094.153,0.09714742
3109.399,0.09851436
3124.795,0.09938155
3140.344,0.100936
3156.047,0.102706
3171.907,0.10439
3187.926,0.106542
3204.106,0.108893
3220.451,0.112398
3236.963,0.113042
3253.643,0.11659
3270.495,0.117341
3287.522,0.119113
3304.726,0.121128
3322.11,0.122452
3339.676,0.123123
3357.429,0.122904
3375.37,0.119032
3393.502,0.1185787
3411.83,0.111197
3430.355,0.112594
3449.082,0.1255839
3468.013,0.131453
3487.152,0.13209
3506.502,0.126531
3526.067,0.142273
3545.851,0.148556
3565.856,0.152554
3586.088,0.156624
3606.549,0.159106
3627.244,0.1621505
3648.176,0.16541
3669.351,0.16822
3690.771,0.1718396
3712.442,0.175302
3734.368,0.179102
3756.553,0.183242
3779.001,0.187689
3801.719,0.19201
3824.71,0.196339
3847.98,0.200394
3871.533,0.204915
3895.375,0.209438
3919.512,0.213629
3943.948,0.218625
3968.689,0.223787
3993.742,0.2294172
4019.111,0.235158
4044.804,0.2409084
4070.825,0.247976
4097.183,0.255635
4123.882,0.264127
4150.931,0.273682
4178.335,0.284396
4206.102,0.31506
4234.24,0.412206
4262.754,0.369306
4291.655,0.4039137
4320.948,0.381986
4350.642,0.371806
4380.746,0.379136
4411.268,0.395266
4442.217,0.40971
4473.602,0.42129
4505.431,0.430221
4537.716,0.4404
4570.465,0.451024
4603.688,0.46183
4637.397,0.4736713
4671.601,0.486152
4706.312,0.499275
4741.541,0.5127956
4777.299,0.524139
4813.6,0.535036
4850.455,0.545392
4887.876,0.555026
4925.878,0.564667
4964.474,0.5747405
5003.678,0.583877
5043.504,0.591351
5083.967,0.604563
5125.083,0.610193
5166.868,0.619277
5209.338,0.64021
5252.51,0.640098
5296.401,0.657017
5341.031,0.670079
5386.417,0.676112
5432.579,0.726574
5479.537,0.95641
5527.312,0.0161306
5575.925,0.157773
5625.399,0.315224
5675.757,0.391521
5727.022,0.438606
5779.22,0.470551
5832.376,0.4982628
5886.517,0.519945
5941.67,0.539145
5997.864,0.549872
6055.129,0.558976
6113.495,0.569883
6172.996,0.581349
6233.663,0.599384
6295.533,0.6143217
6358.64,0.631773
6423.023,0.649403
6488.721,0.666347
6555.774,0.683548
6624.224,0.701502
6694.117,0.704697
6765.497,0.714936
6838.413,0.720998
6912.916,0.726071
6989.057,0.737781
7066.891,0.747308
7146.475,0.762927
7227.869,0.771822
7311.135,0.785139
7396.34,0.794154
7483.55,0.806611
7572.838,0.816056
7664.28,0.823431
7757.953,0.831592
7853.942,0.838952
7952.331,0.846625
8053.214,0.85519
8156.686,0.861297
8262.847,0.865663
8371.804,0.870189
8483.67,0.873618
8598.562,0.876887
8716.604,0.880037
8837.928,0.883556
8962.673,0.887013
9090.986,0.887815
9223.022,0.886587
9358.945,0.8877688
9498.929,0.892445
9643.16,0.897956
9791.834,0.902859
9945.159,0.907143
10103.357,0.910737
10266.663,0.9145551
10435.331,0.916739
10609.627,0.917318
10789.839,0.915747
10976.272,0.913183
11169.256,0.910606
11369.141,0.9086826
11576.304,0.907412
11791.15,0.906671
12014.114,0.906864
12245.667,0.904314
12486.313,0.902615
12736.599,0.9022697
12997.116,0.900449
13268.505,0.896837
13551.461,0.891392
13846.739,0.882324
14155.163,0.864246
14477.629,0.829921
14815.121,0.7626724
15168.712,0.618033
15539.583,0.369571
15929.033,0.181614
15965.407,0.171505