Folder: wwu_spec/csv_library (part 3)

File: FTIR_CLAY_03.csv
Database of Origin,University of Winnipeg Spectrophotometer Facility
Sample Description,See Master Clays in HOSERLab database
Date Added,2016-12-11 20:56:55.133

Data ID,FTIR_CLAY_03
Sample ID,CHM102
Mineral Name,Chamosite
Grain Size,<45 m
Viewing Geometry,35/0
Resolution,11-72 nm
Material Class,Phyllosilicate

Wavelength
2001.142,0.50205
2008.155,0.50436
2015.217,0.50729
2022.328,0.510122
2029.488,0.513239
2036.698,0.515255
2043.959,0.517984
2051.271,0.5198845
2058.635,0.522299
2066.051,0.525111
2073.519,0.526204
2081.041,0.527261
2088.617,0.529587
2096.247,0.531593
2103.932,0.534248
2111.673,0.5364572
2119.471,0.538563
2127.325,0.537679
2135.237,0.538514
2143.207,0.539012
2151.235,0.540131
2159.324,0.539795
2167.472,0.5406798
2175.682,0.5397718
2183.952,0.538494
2192.285,0.537542
2200.682,0.536307
2209.141,0.5335424
2217.665,0.530125
2226.254,0.526799
2234.91,0.521849
2243.631,0.515259
2252.421,0.507352
2261.278,0.501532
2270.204,0.4975383
2279.201,0.491606
2288.268,0.487677
2297.406,0.4838327
2306.617,0.480932
2315.901,0.478743
2325.259,0.475991
2334.692,0.471684
2344.201,0.467692
2353.787,0.465711
2363.451,0.467126
2373.194,0.468892
2383.016,0.471415
2392.919,0.473693
2402.903,0.475208
2412.971,0.475161
2423.122,0.4740523
2433.358,0.472914
2443.679,0.471198
2454.088,0.468136
2464.585,0.464226
2475.171,0.459825
2485.847,0.455444
2496.615,0.452425
2507.476,0.449678
2518.431,0.447717
2529.48,0.446218
2540.627,0.446243
2551.87,0.446597
2563.213,0.447241
2574.656,0.446746
2586.201,0.446037
2597.849,0.443259
2609.601,0.439956
2621.459,0.436844
2633.424,0.431758
2645.498,0.42503
2657.682,0.415223
2669.978,0.406521
2682.387,0.383167
2694.911,0.356086
2707.552,0.31866
2720.31,0.255731
2733.188,0.151624
2746.188,0.08021431
2759.311,0.05103173
2772.559,0.04059232
2785.934,0.03643396
2799.437,0.03412422
2813.071,0.03367194
2826.837,0.03389427
2840.737,0.0341888
2854.774,0.03438696
2868.949,0.03422629
2883.265,0.0332275
2897.723,0.03258071
2912.325,0.03219193
2927.075,0.03146419
2941.973,0.0322858
2957.023,0.03363002
2972.226,0.03380481
2987.586,0.03503343
3003.103,0.03760502
3018.782,0.03921154
3034.624,0.0429595
3050.632,0.04378976
3066.809,0.04614331
3083.157,0.04776755
3099.679,0.05002465
3116.378,0.05144387
3133.257,0.05388156
3150.319,0.05670523
3167.566,0.06012568
3185.001,0.06460068
3202.629,0.06814691
3220.451,0.07468011
3238.472,0.0784575
3256.694,0.08582425
3275.122,0.08968869
3293.757,0.09579589
3312.605,0.1003
3331.669,0.106216
3350.952,0.107847
3370.458,0.109109
3390.191,0.113384
3410.156,0.116811
3430.355,0.123558
3450.794,0.132747
3471.477,0.138168
3492.408,0.143873
3513.592,0.151704
3535.032,0.166978
3556.735,0.176429
3578.704,0.185788
3600.946,0.19465
3623.463,0.203031
3646.263,0.210904
3669.351,0.219315
3692.731,0.228547
3716.409,0.237635
3740.392,0.246406
3764.685,0.253366
3789.294,0.257389
3814.225,0.258823
3839.486,0.260909
3865.081,0.265458
3891.019,0.269264
3917.305,0.272345
3943.948,0.273301
3970.954,0.27226
3998.33,0.278826
4026.086,0.298351
4054.228,0.32409
4082.764,0.346101
4111.703,0.363173
4141.054,0.377616
4170.826,0.390245
4201.026,0.41303
4231.666,0.491678
4262.754,0.47407
4294.301,0.503028
4326.317,0.491062
4358.811,0.4871229
4391.796,0.499552
4425.282,0.5166148
4459.281,0.530041
4493.805,0.541871
4528.865,0.552197
4564.475,0.565046
4600.648,0.5763061
4637.397,0.588368
4674.735,0.601861
4712.678,0.616591
4751.24,0.629657
4790.436,0.643861
4830.283,0.654267
4870.795,0.666359
4911.991,0.676612
4953.888,0.686749
4996.504,0.696056
5039.857,0.705274
5083.967,0.716033
5128.854,0.7245746
5174.538,0.734765
5221.041,0.746138
5268.386,0.754307
5316.595,0.763315
5365.692,0.772792
5415.701,0.785706
5466.65,0.797786
5518.564,0.816738
5571.47,0.862134
5625.399,0.729051
5680.379,0.768708
5736.443,0.7928061
5793.621,0.798845
5851.948,0.812787
5911.459,0.821375
5972.19,0.836103
6034.179,0.845381
6097.466,0.852296
6162.091,0.861582
6228.099,0.870842
6295.533,0.879865
6364.44,0.891829
6434.869,0.899982
6506.872,0.908984
6580.501,0.918289
6655.812,0.921331
6732.864,0.926041
6811.718,0.932952
6892.437,0.937798
6975.089,0.942939
7059.743,0.949357
7146.475,0.955164
7235.36,0.958936
7326.481,0.964669
7419.922,0.968598
7515.774,0.972473
7614.131,0.9763287
7715.093,0.979442
7818.764,0.983371
7925.254,0.987945
8034.682,0.992057
8147.169,0.996044
8262.847,0.999584
8381.852,0.0100298
8504.331,0.0100644
8630.437,0.0100939
8760.335,0.0101249
8894.198,0.0101603
9032.21,0.0101837
9174.568,0.0101838
9321.48,0.0101842
9473.167,0.0101951
9629.868,0.0102005
9791.834,0.01020638
9959.336,0.0102159
10132.662,0.0102289
10312.121,0.01024232
10498.045,0.0102489
10690.79,0.0102496
10890.738,0.0102531
11098.301,0.010257
11313.921,0.0102549
11538.079,0.0102376
11771.29,0.0102339
12014.114,0.0102342
12267.16,0.0102278
12531.086,0.01022895
12806.608,0.0102342
13094.51,0.0102413
13395.644,0.0102502
13710.943,0.0102306
14041.433,0.0102123
14388.237,0.0101791
14752.594,0.0101405
15135.871,0.0100157
15539.583,0.955173
15965.407,0.781683

File: FTIR_CLAY_04.csv
Database of Origin,University of Winnipeg Spectrophotometer Facility
Sample Description,See Master Clays in HOSERLab database
Date Added,2016-12-11 20:56:55.1529

Data ID,FTIR_CLAY_04
Sample ID,CRO101
Mineral Name,Cronstedtite
Grain Size,<45 m
Viewing Geometry,35/0
Resolution,11-72 nm
Material Class,Phyllosilicate

Wavelength
2001.142,0.163281
2008.155,0.16385
2015.217,0.164434
2022.328,0.1646751
2029.488,0.164809
2036.698,0.165582
2043.959,0.166478
2051.271,0.166725
2058.635,0.167507
2066.051,0.16721
2073.519,0.16762
2081.041,0.1682238
2088.617,0.16908
2096.247,0.169202
2103.932,0.1699781
2111.673,0.169947
2119.471,0.170184
2127.325,0.171334
2135.237,0.171679
2143.207,0.17142
2151.235,0.171861
2159.324,0.171834
2167.472,0.172747
2175.682,0.173087
2183.952,0.173484
2192.285,0.173923
2200.682,0.174217
2209.141,0.174446
2217.665,0.1742807
2226.254,0.174422
2234.91,0.174494
2243.631,0.175071
2252.421,0.175167
2261.278,0.17501
2270.204,0.174781
2279.201,0.174581
2288.268,0.174386
2297.406,0.174377
2306.617,0.1729087
2315.901,0.171088
2325.259,0.169748
2334.692,0.17146
2344.201,0.172728
2353.787,0.172374
2363.451,0.172098
2373.194,0.17158
2383.016,0.1728265
2392.919,0.1732375
2402.903,0.173719
2412.971,0.173792
2423.122,0.174174
2433.358,0.1748412
2443.679,0.174986
2454.088,0.175163
2464.585,0.174971
2475.171,0.174822
2485.847,0.174651
2496.615,0.174549
2507.476,0.174615
2518.431,0.1746091
2529.48,0.174956
2540.627,0.17479
2551.87,0.176634
2563.213,0.18223
2574.656,0.179891
2586.201,0.180596
2597.849,0.1779994
2609.601,0.177816
2621.459,0.178362
2633.424,0.178041
2645.498,0.175474
2657.682,0.174914
2669.978,0.188474
2682.387,0.174743
2694.911,0.182563
2707.552,0.180428
2720.31,0.1898244
2733.188,0.145004
2746.188,0.115072
2759.311,0.09740014
2772.559,0.08086545
2785.934,0.0687198
2799.437,0.06135827
2813.071,0.05721896
2826.837,0.05398055
2840.737,0.04999536
2854.774,0.04734773
2868.949,0.04573512
2883.265,0.04430891
2897.723,0.042914
2912.325,0.04154879
2927.075,0.04028129
2941.973,0.03912874
2957.023,0.03933323
2972.226,0.03745157
2987.586,0.03691298
3003.103,0.03742509
3018.782,0.03675989
3034.624,0.03919472
3050.632,0.03737611
3066.809,0.03881543
3083.157,0.0385647
3099.679,0.04079709
3116.378,0.04069564
3133.257,0.04184249
3150.319,0.04369728
3167.566,0.04571149
3185.001,0.04845274
3202.629,0.04970188
3220.451,0.05426399
3238.472,0.05418637
3256.694,0.05988986
3275.122,0.05929419
3293.757,0.06290538
3312.605,0.06428913
3331.669,0.06955435
3350.952,0.07012361
3370.458,0.07201962
3390.191,0.07330219
3410.156,0.07792668
3430.355,0.08021993
3450.794,0.08428429
3471.477,0.08690757
3492.408,0.09208436
3513.592,0.09340895
3535.032,0.09946939
3556.735,0.101037
3578.704,0.104761
3600.946,0.108806
3623.463,0.112304
3646.263,0.115844
3669.351,0.119668
3692.731,0.124124
3716.409,0.128259
3740.392,0.133039
3764.685,0.137996
3789.294,0.143593
3814.225,0.148927
3839.486,0.154647
3865.081,0.160231
3891.019,0.165774
3917.305,0.172178
3943.948,0.1788688
3970.954,0.186685
3998.33,0.193802
4026.086,0.2003
4054.228,0.20798
4082.764,0.2170201
4111.703,0.227517
4141.054,0.238638
4170.826,0.250716
4201.026,0.273728
4231.666,0.369299
4262.754,0.341329
4294.301,0.372779
4326.317,0.35036
4358.811,0.342767
4391.796,0.353616
4425.282,0.368937
4459.281,0.381972
4493.805,0.393308
4528.865,0.404694
4564.475,0.416261
4600.648,0.428771
4637.397,0.441274
4674.735,0.45377
4712.678,0.46647
4751.24,0.479192
4790.436,0.492383
4830.283,0.501994
4870.795,0.513066
4911.991,0.523846
4953.888,0.536731
4996.504,0.543861
5039.857,0.553301
5083.967,0.568027
5128.854,0.5735515
5174.538,0.58348
5221.041,0.59855
5268.386,0.604793
5316.595,0.613707
5365.692,0.627678
5415.701,0.658219
5466.65,0.690397
5518.564,0.741349
5571.47,0.622122
5625.399,0.530075
5680.379,0.589757
5736.443,0.620421
5793.621,0.625516
5851.948,0.650987
5911.459,0.660829
5972.19,0.687988
6034.179,0.695191
6097.466,0.698784
6162.091,0.708889
6228.099,0.711279
6295.533,0.720076
6364.44,0.745199
6434.869,0.756234
6506.872,0.772531
6580.501,0.793906
6655.812,0.778625
6732.864,0.778188
6811.718,0.788251
6892.437,0.791453
6975.089,0.7982482
7059.743,0.804422
7146.475,0.819386
7235.36,0.816057
7326.481,0.830114
7419.922,0.828754
7515.774,0.834898
7614.131,0.842216
7715.093,0.846182
7818.764,0.849821
7925.254,0.8552059
8034.682,0.859024
8147.169,0.861501
8262.847,0.86229
8381.852,0.864592
8504.331,0.866692
8630.437,0.868798
8760.335,0.870547
8894.198,0.872859
9032.21,0.874344
9174.568,0.874863
9321.48,0.87524
9473.167,0.876587
9629.868,0.87983
9791.834,0.883474
9959.336,0.887014
10132.662,0.8900375
10312.121,0.893112
10498.045,0.895746
10690.79,0.897233
10890.738,0.895938
11098.301,0.893992
11313.921,0.8941008
11538.079,0.895614
11771.29,0.896385
12014.114,0.897225
12267.16,0.89639
12531.086,0.897179
12806.608,0.897739
13094.51,0.897842
13395.644,0.897726
13710.943,0.898037
14041.433,0.894113
14388.237,0.883487
14752.594,0.8556448
15135.871,0.783557
15539.583,0.582917
15965.407,0.34261

File: FTIR_CLAY_05.csv
Database of Origin,University of Winnipeg Spectrophotometer Facility
Sample Description,See Master Clays in HOSERLab database
Date Added,2016-12-11 20:56:55.1731

Data ID,FTIR_CLAY_05
Sample ID,GLA103
Mineral Name,Glauconite
Grain Size,<45 m
Viewing Geometry,35/0
Resolution,11-72 nm
Material Class,Phyllosilicate

Wavelength
2001.142,0.411112
2008.155,0.414768
2015.217,0.418938
2022.328,0.422644
2029.488,0.426276
2036.698,0.4301823
2043.959,0.432802
2051.271,0.435056
2058.635,0.4377008
2066.051,0.439332
2073.519,0.441254
2081.041,0.443459
2088.617,0.446126
2096.247,0.447263
2103.932,0.449373
2111.673,0.451219
2119.471,0.453126
2127.325,0.452814
2135.237,0.453723
2143.207,0.454482
2151.235,0.454836
2159.324,0.452569
2167.472,0.452968
2175.682,0.451734
2183.952,0.449168
2192.285,0.445344
2200.682,0.441384
2209.141,0.437794
2217.665,0.435947
2226.254,0.432048
2234.91,0.423572
2243.631,0.41553
2252.421,0.410026
2261.278,0.411151
2270.204,0.408669
2279.201,0.405729
2288.268,0.3908213
2297.406,0.375709
2306.617,0.370497
2315.901,0.376685
2325.259,0.387349
2334.692,0.3873362
2344.201,0.38186
2353.787,0.377149
2363.451,0.37135
2373.194,0.370116
2383.016,0.373001
2392.919,0.376773
2402.903,0.377878
2412.971,0.375769
2423.122,0.37174
2433.358,0.365685
2443.679,0.359466
2454.088,0.354037
2464.585,0.348498
2475.171,0.34366
2485.847,0.33857
2496.615,0.334915
2507.476,0.332778
2518.431,0.331853
2529.48,0.331314
2540.627,0.331254
2551.87,0.332604
2563.213,0.3371201
2574.656,0.333163
2586.201,0.330925
2597.849,0.3237981
2609.601,0.319454
2621.459,0.314216
2633.424,0.306249
2645.498,0.293157
2657.682,0.281038
2669.978,0.277731
2682.387,0.239183
2694.911,0.19068
2707.552,0.148844
2720.31,0.135837
2733.188,0.07216856
2746.188,0.04192495
2759.311,0.0332727
2772.559,0.02898634
2785.934,0.02666455
2799.437,0.02289559
2813.071,0.02251015
2826.837,0.02233505
2840.737,0.0226553
2854.774,0.02320596
2868.949,0.02307459
2883.265,0.02174655
2897.723,0.02075947
2912.325,0.02028708
2927.075,0.0199329
2941.973,0.01970152
2957.023,0.02084482
2972.226,0.02029175
2987.586,0.01996893
3003.103,0.02087964
3018.782,0.02135997
3034.624,0.02405942
3050.632,0.0226918
3066.809,0.02500704
3083.157,0.02488061
3099.679,0.026858
3116.378,0.02729252
3133.257,0.02913511
3150.319,0.03200665
3167.566,0.03538759
3185.001,0.04034813
3202.629,0.04423959
3220.451,0.05187337
3238.472,0.05464093
3256.694,0.06365212
3275.122,0.0671418
3293.757,0.07507798
3312.605,0.08083928
3331.669,0.09072793
3350.952,0.09490166
3370.458,0.09755671
3390.191,0.102637
3410.156,0.1065
3430.355,0.116946
3450.794,0.132146
3471.477,0.141503
3492.408,0.149969
3513.592,0.159315
3535.032,0.179208
3556.735,0.189909
3578.704,0.201402
3600.946,0.212543
3623.463,0.222146
3646.263,0.231283
3669.351,0.240719
3692.731,0.250483
3716.409,0.260043
3740.392,0.269489
3764.685,0.278388
3789.294,0.287771
3814.225,0.295623
3839.486,0.303696
3865.081,0.310124
3891.019,0.316238
3917.305,0.321895
3943.948,0.326603
3970.954,0.331957
3998.33,0.336307
4026.086,0.339419
4054.228,0.343009
4082.764,0.346892
4111.703,0.351545
4141.054,0.357205
4170.826,0.36297
4201.026,0.379256
4231.666,0.4654
4262.754,0.431514
4294.301,0.455997
4326.317,0.429963
4358.811,0.41819
4391.796,0.423693
4425.282,0.4330116
4459.281,0.4415233
4493.805,0.449216
4528.865,0.457241
4564.475,0.465567
4600.648,0.4744151
4637.397,0.483354
4674.735,0.49269
4712.678,0.503199
4751.24,0.513276
4790.436,0.524626
4830.283,0.532222
4870.795,0.541348
4911.991,0.549109
4953.888,0.559233
4996.504,0.563364
5039.857,0.5718056
5083.967,0.585595
5128.854,0.59042
5174.538,0.598327
5221.041,0.610048
5268.386,0.610311
5316.595,0.614559
5365.692,0.626099
5415.701,0.657809
5466.65,0.688046
5518.564,0.743152
5571.47,0.657861
5625.399,0.5173337
5680.379,0.576318
5736.443,0.602894
5793.621,0.606484
5851.948,0.62965
5911.459,0.637526
5972.19,0.663709
6034.179,0.670936
6097.466,0.675132
6162.091,0.686003
6228.099,0.6886451
6295.533,0.6975283
6364.44,0.726393
6434.869,0.739032
6506.872,0.756184
6580.501,0.779215
6655.812,0.763208
6732.864,0.761644
6811.718,0.769838
6892.437,0.77243
6975.089,0.778319
7059.743,0.784135
7146.475,0.800023
7235.36,0.795645
7326.481,0.810518
7419.922,0.808381
7515.774,0.814104
7614.131,0.821861
7715.093,0.8257452
7818.764,0.829674
7925.254,0.836287
8034.682,0.841342
8147.169,0.846537
8262.847,0.84879
8381.852,0.851862
8504.331,0.854378
8630.437,0.85693
8760.335,0.859524
8894.198,0.862674
9032.21,0.864885
9174.568,0.866192
9321.48,0.867246
9473.167,0.870123
9629.868,0.872742
9791.834,0.87589
9959.336,0.878874
10132.662,0.881329
10312.121,0.884001
10498.045,0.886136
10690.79,0.88784
10890.738,0.886446
11098.301,0.884633
11313.921,0.88444
11538.079,0.886399
11771.29,0.887373
12014.114,0.888562
12267.16,0.887269
12531.086,0.888405
12806.608,0.88894
13094.51,0.8886
13395.644,0.888184
13710.943,0.888238
14041.433,0.884557
14388.237,0.874022
14752.594,0.848194
15135.871,0.776221
15539.583,0.5800986
15965.407,0.365713

File: FTIR_CLAY_06.csv
Database of Origin,University of Winnipeg Spectrophotometer Facility
Sample Description,See Master Clays in HOSERLab database
Date Added,2016-12-11 20:56:55.1932

Data ID,FTIR_CLAY_06
Sample ID,GRE001
Mineral Name,Greenalite
Grain Size,<45 m
Viewing Geometry,35/0
Resolution,11-72 nm
Material Class,Phyllosilicate

Wavelength
2001.142,0.11718
2008.155,0.117426
2015.217,0.117336
2022.328,0.117002
2029.488,0.117454
2036.698,0.117904
2043.959,0.117966
2051.271,0.117841
2058.635,0.118193
2066.051,0.118703
2073.519,0.118702
2081.041,0.118647
2088.617,0.119345
2096.247,0.11896
2103.932,0.1192739
2111.673,0.118442
2119.471,0.118727
2127.325,0.119352
2135.237,0.11823
2143.207,0.11939
2151.235,0.119758
2159.324,0.120103
2167.472,0.1202299
2175.682,0.120941
2183.952,0.121245
2192.285,0.121716
2200.682,0.122205
2209.141,0.121668
2217.665,0.122702
2226.254,0.12205
2234.91,0.121905
2243.631,0.122244
2252.421,0.1223795
2261.278,0.121489
2270.204,0.121189
2279.201,0.121263
2288.268,0.120924
2297.406,0.120937
2306.617,0.119934
2315.901,0.119786
2325.259,0.119333
2334.692,0.119034
2344.201,0.117865
2353.787,0.118747
2363.451,0.1205782
2373.194,0.121876
2383.016,0.122965
2392.919,0.123531
2402.903,0.123745
2412.971,0.123797
2423.122,0.123562
2433.358,0.123563
2443.679,0.123389
2454.088,0.122892
2464.585,0.122401
2475.171,0.122262
2485.847,0.122158
2496.615,0.122819
2507.476,0.122985
2518.431,0.123394
2529.48,0.124594
2540.627,0.125933
2551.87,0.128262
2563.213,0.134611
2574.656,0.13152
2586.201,0.133177
2597.849,0.130883
2609.601,0.130546
2621.459,0.13148
2633.424,0.132534
2645.498,0.129672
2657.682,0.129808
2669.978,0.143933
2682.387,0.128692
2694.911,0.133282
2707.552,0.119199
2720.31,0.105086
2733.188,0.06041364
2746.188,0.03865647
2759.311,0.03300007
2772.559,0.03159322
2785.934,0.03023364
2799.437,0.02972663
2813.071,0.03129227
2826.837,0.03243731
2840.737,0.03363433
2854.774,0.03428809
2868.949,0.03453562
2883.265,0.03385555
2897.723,0.03354151
2912.325,0.03323558
2927.075,0.03347741
2941.973,0.0338814
2957.023,0.0360744
2972.226,0.03562989
2987.586,0.03587243
3003.103,0.03886574
3018.782,0.03878945
3034.624,0.0432376
3050.632,0.04142254
3066.809,0.04513779
3083.157,0.04430408
3099.679,0.0466238
3116.378,0.04618765
3133.257,0.04672099
3150.319,0.04816205
3167.566,0.04933708
3185.001,0.05243565
3202.629,0.05321493
3220.451,0.0579048
3238.472,0.05615859
3256.694,0.06183747
3275.122,0.05912609
3293.757,0.06229989
3312.605,0.06193859
3331.669,0.06634712
3350.952,0.06533482
3370.458,0.06505375
3390.191,0.06485089
3410.156,0.06845586
3430.355,0.06893178
3450.794,0.07193184
3471.477,0.07279663
3492.408,0.07733231
3513.592,0.07682416
3535.032,0.08243775
3556.735,0.08149295
3578.704,0.0835746
3600.946,0.08650949
3623.463,0.08751059
3646.263,0.089642
3669.351,0.09176948
3692.731,0.09398267
3716.409,0.09624531
3740.392,0.09945076
3764.685,0.101992
3789.294,0.104781
3814.225,0.108313
3839.486,0.111732
3865.081,0.11577
3891.019,0.119958
3917.305,0.124291
3943.948,0.128828
3970.954,0.134516
3998.33,0.140165
4026.086,0.145953
4054.228,0.153149
4082.764,0.1609004
4111.703,0.168486
4141.054,0.176898
4170.826,0.186452
4201.026,0.203801
4231.666,0.273071
4262.754,0.257129
4294.301,0.279474
4326.317,0.265784
4358.811,0.260278
4391.796,0.268586
4425.282,0.281478
4459.281,0.294011
4493.805,0.306985
4528.865,0.320128
4564.475,0.333028
4600.648,0.345503
4637.397,0.359223
4674.735,0.3736948
4712.678,0.387757
4751.24,0.402395
4790.436,0.417576
4830.283,0.4308092
4870.795,0.44406
4911.991,0.456295
4953.888,0.471678
4996.504,0.480873
5039.857,0.493491
5083.967,0.510562
5128.854,0.518646
5174.538,0.532067
5221.041,0.550476
5268.386,0.560509
5316.595,0.572052
5365.692,0.589026
5415.701,0.620951
5466.65,0.641757
5518.564,0.646598
5571.47,0.578878
5625.399,0.601529
5680.379,0.635012
5736.443,0.663596
5793.621,0.665208
5851.948,0.6961551
5911.459,0.707595
5972.19,0.735736
6034.179,0.743643
6097.466,0.749558
6162.091,0.760029
6228.099,0.758286
6295.533,0.764612
6364.44,0.793169
6434.869,0.806353
6506.872,0.824053
6580.501,0.846502
6655.812,0.83061
6732.864,0.831519
6811.718,0.842435
6892.437,0.848301
6975.089,0.857656
7059.743,0.86466
7146.475,0.880189
7235.36,0.875404
7326.481,0.89085
7419.922,0.889823
7515.774,0.89742
7614.131,0.905397
7715.093,0.909923
7818.764,0.91562
7925.254,0.923993
8034.682,0.930233
8147.169,0.936291
8262.847,0.941056
8381.852,0.946246
8504.331,0.950954
8630.437,0.955089
8760.335,0.958925
8894.198,0.963635
9032.21,0.967547
9174.568,0.968332
9321.48,0.968401
9473.167,0.969888
9629.868,0.97268
9791.834,0.974409
9959.336,0.976113
10132.662,0.978343
10312.121,0.9808333
10498.045,0.982481
10690.79,0.983307
10890.738,0.984221
11098.301,0.984737
11313.921,0.98564
11538.079,0.985727
11771.29,0.985872
12014.114,0.98649
12267.16,0.986756
12531.086,0.986842
12806.608,0.9869696
13094.51,0.987385
13395.644,0.987984
13710.943,0.9873653
14041.433,0.983871
14388.237,0.97934
14752.594,0.965087
15135.871,0.925365
15539.583,0.7927984
15965.407,0.54969

File: FTIR_CLAY_07.csv
Database of Origin,University of Winnipeg Spectrophotometer Facility
Sample Description,See Master Clays in HOSERLab database
Date Added,2016-12-11 20:56:55.2131

Data ID,FTIR_CLAY_07
Sample ID,HAL001
Mineral Name,Halloysite
Grain Size,<45 m
Viewing Geometry,35/0
Resolution,11-72 nm
Material Class,Phyllosilicate

Wavelength
2001.142,0.4509227
2008.155,0.455194
2015.217,0.4591493
2022.328,0.462181
2029.488,0.465119
2036.698,0.468651
2043.959,0.470641
2051.271,0.471293
2058.635,0.470834
2066.051,0.4708282
2073.519,0.4691958
2081.041,0.4687921
2088.617,0.468531
2096.247,0.466313
2103.932,0.4603383
2111.673,0.45667
2119.471,0.454986
2127.325,0.448299
2135.237,0.437082
2143.207,0.4161604
2151.235,0.388584
2159.324,0.368415
2167.472,0.362377
2175.682,0.36017
2183.952,0.3484244
2192.285,0.325322
2200.682,0.2834059
2209.141,0.289278
2217.665,0.361908
2226.254,0.392808
2234.91,0.4038277
2243.631,0.408429
2252.421,0.408285
2261.278,0.40799
2270.204,0.405421
2279.201,0.401032
2288.268,0.393751
2297.406,0.383528
2306.617,0.370328
2315.901,0.362887
2325.259,0.359019
2334.692,0.357153
2344.201,0.347318
2353.787,0.338777
2363.451,0.338991
2373.194,0.327968
2383.016,0.317169
2392.919,0.318816
2402.903,0.319704
2412.971,0.313067
2423.122,0.304558
2433.358,0.2946
2443.679,0.287952
2454.088,0.285504
2464.585,0.279453
2475.171,0.271302
2485.847,0.263152
2496.615,0.259961
2507.476,0.255017
2518.431,0.249887
2529.48,0.24549
2540.627,0.2398
2551.87,0.236032
2563.213,0.23338
2574.656,0.224265
2586.201,0.218107
2597.849,0.208163
2609.601,0.200653
2621.459,0.190894
2633.424,0.176817
2645.498,0.15795
2657.682,0.13678
2669.978,0.122924
2682.387,0.07499678
2694.911,0.06190583
2707.552,0.06365471
2720.31,0.07987788
2733.188,0.0457904
2746.188,0.02835504
2759.311,0.02350181
2772.559,0.02487739
2785.934,0.02479729
2799.437,0.02395603
2813.071,0.02234028
2826.837,0.02197844
2840.737,0.02137516
2854.774,0.02111551
2868.949,0.02031296
2883.265,0.01991709
2897.723,0.01956292
2912.325,0.01942669
2927.075,0.01921402
2941.973,0.0193191
2957.023,0.01994686
2972.226,0.02002237
2987.586,0.02004796
3003.103,0.02136289
3018.782,0.02182436
3034.624,0.02463652
3050.632,0.02392271
3066.809,0.02613534
3083.157,0.02645287
3099.679,0.02859051
3116.378,0.02940892
3133.257,0.03201164
3150.319,0.03461607
3167.566,0.03857097
3185.001,0.04387474
3202.629,0.04767389
3220.451,0.05556817
3238.472,0.05883117
3256.694,0.06760062
3275.122,0.07123948
3293.757,0.07885783
3312.605,0.0851238
3331.669,0.0944919
3350.952,0.100252
3370.458,0.105518
3390.191,0.113486
3410.156,0.121816
3430.355,0.131254
3450.794,0.141922
3471.477,0.150568
3492.408,0.160484
3513.592,0.1690966
3535.032,0.181562
3556.735,0.18948
3578.704,0.198881
3600.946,0.209825
3623.463,0.218403
3646.263,0.226515
3669.351,0.233427
3692.731,0.240579
3716.409,0.2522064
3740.392,0.260698
3764.685,0.270425
3789.294,0.278563
3814.225,0.285613
3839.486,0.291909
3865.081,0.297737
3891.019,0.302813
3917.305,0.307425
3943.948,0.311186
3970.954,0.3156473
3998.33,0.319694
4026.086,0.32361
4054.228,0.327675
4082.764,0.3325213
4111.703,0.338785
4141.054,0.345549
4170.826,0.352994
4201.026,0.371243
4231.666,0.460746
4262.754,0.425433
4294.301,0.449398
4326.317,0.421552
4358.811,0.408493
4391.796,0.412865
4425.282,0.421169
4459.281,0.427692
4493.805,0.432779
4528.865,0.438242
4564.475,0.443882
4600.648,0.449524
4637.397,0.454775
4674.735,0.461206
4712.678,0.471503
4751.24,0.4821394
4790.436,0.493187
4830.283,0.499439
4870.795,0.507462
4911.991,0.514958
4953.888,0.52513
4996.504,0.528257
5039.857,0.531866
5083.967,0.540136
5128.854,0.540804
5174.538,0.548084
5221.041,0.563328
5268.386,0.570429
5316.595,0.5780062
5365.692,0.588244
5415.701,0.616668
5466.65,0.6454019
5518.564,0.701392
5571.47,0.625059
5625.399,0.487119
5680.379,0.544916
5736.443,0.573245
5793.621,0.576737
5851.948,0.601878
5911.459,0.611146
5972.19,0.6374626
6034.179,0.642808
6097.466,0.646433
6162.091,0.657615
6228.099,0.6607403
6295.533,0.669352
6364.44,0.698403
6434.869,0.711264
6506.872,0.729734
6580.501,0.754428
6655.812,0.734773
6732.864,0.732399
6811.718,0.74189
6892.437,0.745033
6975.089,0.751114
7059.743,0.756686
7146.475,0.773236
7235.36,0.767381
7326.481,0.7832
7419.922,0.7797923
7515.774,0.786122
7614.131,0.794361
7715.093,0.798481
7818.764,0.802026
7925.254,0.80853
8034.682,0.813288
8147.169,0.817976
8262.847,0.8202
8381.852,0.823693
8504.331,0.826846
8630.437,0.830325
8760.335,0.8343511
8894.198,0.836147
9032.21,0.838634
9174.568,0.841098
9321.48,0.842431
9473.167,0.844469
9629.868,0.846703
9791.834,0.850167
9959.336,0.853933
10132.662,0.856984
10312.121,0.859441
10498.045,0.861241
10690.79,0.862916
10890.738,0.862665
11098.301,0.861482
11313.921,0.862581
11538.079,0.866281
11771.29,0.8683129
12014.114,0.869647
12267.16,0.868729
12531.086,0.870339
12806.608,0.870576
13094.51,0.87038
13395.644,0.870322
13710.943,0.871663
14041.433,0.869332
14388.237,0.860291
14752.594,0.836115
15135.871,0.767828
15539.583,0.577208
15965.407,0.3642997