Folder: wwu_spec/csv_library (part 11)

File: FTIR_PLG_11.csv
Database of Origin,University of Winnipeg Spectrophotometer Facility
Sample Description,IR Reflectance spectra of plagioclase with a Bruker Vertex 70 FTIR. See Master Plagioclase in PSF database for additional info.
Date Added,2016-11-22 04:00:06.421853

Data ID,FTIR_PLG_11
Sample ID,PLG130
Mineral Name,Plagioclase
Grain Size,250-500 um
Viewing Geometry,"i30, e0"
Resolution,7.71cm-1
Material Class,Tectosilicate

Wavelength
1670.16,0.38394
1676.64,0.38417
1683.18,0.38374
1689.76,0.38458
1696.39,0.38387
1703.08,0.38365
1709.82,0.38332
1716.62,0.38341
1723.46,0.38278
1730.37,0.38199
1737.33,0.38205
1744.34,0.38112
1751.41,0.38016
1758.54,0.37993
1765.73,0.37986
1772.98,0.38045
1780.28,0.38051
1787.65,0.38121
1795.08,0.38074
1802.57,0.38147
1810.12,0.38191
1817.73,0.38406
1825.42,0.38488
1833.16,0.38593
1840.97,0.38784
1848.85,0.38494
1856.8,0.38318
1864.81,0.37898
1872.9,0.38023
1881.05,0.36486
1889.28,0.35363
1897.58,0.33735
1905.95,0.3174
1914.39,0.29612
1922.92,0.27979
1931.51,0.26529
1940.19,0.2567
1948.94,0.25359
1957.77,0.25519
1966.68,0.25837
1975.68,0.26289
1984.76,0.26934
1993.92,0.27784
2003.16,0.28612
2012.49,0.29585
2021.91,0.30322
2031.42,0.30859
2041.02,0.31389
2050.7,0.31772
2060.48,0.32181
2070.36,0.32581
2080.33,0.32997
2090.4,0.33445
2100.56,0.3378
2110.82,0.34093
2121.19,0.34408
2131.65,0.34665
2142.22,0.34937
2152.9,0.35144
2163.68,0.35343
2174.57,0.35551
2185.57,0.35785
2196.69,0.35996
2207.91,0.36195
2219.26,0.36378
2230.71,0.36506
2242.29,0.36664
2253.99,0.36744
2265.813,0.36805
2277.76,0.36805
2289.83,0.36654
2302.03,0.36476
2314.37,0.36233
2326.83,0.35819
2339.43,0.35237
2352.17,0.34558
2365.05,0.33673
2378.06,0.32565
2391.23,0.31163
2404.54,0.29848
2417.99,0.28757
2431.6,0.27956
2445.37,0.27405
2459.29,0.26956
2473.37,0.2664
2487.61,0.26513
2502.02,0.26419
2516.59,0.26454
2531.34,0.26612
2546.26,0.2678
2561.35,0.2709
2576.63,0.27133
2592.09,0.27255
2607.74,0.26763
2623.57,0.25725
2639.6,0.24013
2655.83,0.23326
2672.26,0.22931
2688.89,0.19297
2705.73,0.15886
2722.78,0.12439
2740.05,0.09149
2757.54,0.06834
2775.26,0.05557
2793.2,0.04845
2811.38,0.04524
2829.79,0.04271
2848.45,0.04115
2867.36,0.04017
2886.51,0.03966
2905.93,0.03891
2925.61,0.03795
2945.56,0.0377
2965.78,0.03783
2986.28,0.03851
3007.07,0.03914
3028.14,0.03877
3049.52,0.03831
3071.2,0.0387
3093.19,0.03957
3115.49,0.04193
3138.12,0.04405
3161.09,0.04688
3184.39,0.0498
3208.03,0.05341
3232.03,0.05743
3256.39,0.06157
3281.13,0.06662
3306.24,0.07255
3331.74,0.07897
3357.63,0.08601
3383.93,0.09305
3410.64,0.10127
3437.79,0.11034
3465.36,0.11942
3493.38,0.12834
3521.86,0.13845
3550.81,0.14773
3580.23,0.15657
3610.15,0.16482
3640.58,0.17259
3671.52,0.17953
3702.99,0.18618
3735,0.19178
3767.57,0.19746
3800.72,0.20198
3834.45,0.20521
3868.79,0.20664
3903.75,0.20742
3939.35,0.20695
3975.6,0.20461
4012.52,0.20048
4050.14,0.19397
4088.47,0.18503
4127.53,0.17515
4167.35,0.16394
4207.94,0.16191
4249.33,0.15446
4291.54,0.13257
4334.6,0.10468
4378.53,0.09351
4423.36,0.09026
4469.12,0.08886
4515.84,0.08508
4563.54,0.07889
4612.26,0.07085
4662.03,0.06325
4712.89,0.05695
4764.87,0.05257
4818.01,0.04738
4872.35,0.04426
4927.93,0.04085
4984.79,0.03754
5042.98,0.0338
5102.54,0.03
5163.53,0.02708
5225.99,0.02486
5289.98,0.02286
5355.56,0.02165
5422.78,0.02048
5491.72,0.01982
5562.43,0.01936
5634.98,0.01884
5709.45,0.01816
5785.92,0.01679
5864.46,0.01606
5945.16,0.01521
6028.12,0.01455
6113.42,0.01394
6201.17,0.01303
6291.48,0.01225
6384.46,0.01317
6480.23,0.01349
6578.91,0.01298
6680.64,0.01185
6785.58,0.01039
6893.86,0.00981
7005.65,0.00924
7121.13,0.00848
7240.48,0.00749
7363.89,0.00672
7491.59,0.00591
7623.79,0.00503
7760.75,0.00411
7902.71,0.00338
8049.97,0.0035
8202.82,0.00646
8361.58,0.01949
8526.61,0.0289
8698.29,0.03277
8877.02,0.03722
9063.25,0.03539
9257.46,0.02999
9460.18,0.0339
9671.98,0.04413
9893.47,0.05059
10125.4,0.0513
10368.4,0.05554
10623.3,0.06049
10891.1,0.05751
11172.8,0.04743
11469.4,0.037
11782.2,0.03109
12112.6,0.02528
12462,0.01946
12832.1,0.01736
13224.9,0.01892
13642.6,0.01926
14087.4,0.01693
14562.3,0.01471
15070.3,0.01619
15615,0.03446
16200.6,0.03926
16831.8,0.04673
17514.1,0.04381
18254.2,0.04152
19059.5,0.03793
19939.2,0.02645
20904,0.02712
21966.9,0.02427
23143.7,0.0355
24453.7,0.06149
25412.6,0.06531

File: FTIR_PYX_01.csv
Database of Origin,University of Winnipeg Spectrophotometer Facility
Sample Description,"HOSERLab master pyroxenes, FTIR data"
Date Added,2016-12-14 03:34:49.5076

Data ID,FTIR_PYX_01
Sample ID,PYX003
Mineral Name,Orthopyroxene
Grain Size,<45 um
Viewing Geometry,"i=30, e=0"
Material Class,Inosilicate

Wavelength
2000.56,0.419634
2006.983,0.4230166
2013.447,0.427491
2019.952,0.4316522
2026.499,0.435439
2033.087,0.43926
2039.718,0.4441173
2046.391,0.448481
2053.107,0.452956
2059.867,0.458022
2066.671,0.4627259
2073.519,0.466987
2080.412,0.471145
2087.35,0.476981
2094.334,0.481608
2101.364,0.486785
2108.441,0.4917944
2115.565,0.497425
2122.736,0.502892
2129.956,0.507279
2137.224,0.513073
2144.541,0.518201
2151.907,0.522783
2159.324,0.527417
2166.791,0.532602
2174.309,0.537171
2181.879,0.542191
2189.501,0.547416
2197.175,0.552447
2204.903,0.557462
2212.685,0.562689
2220.521,0.566838
2228.412,0.570541
2236.359,0.5729261
2244.361,0.575386
2252.421,0.5794192
2260.537,0.583791
2268.712,0.586584
2276.945,0.589642
2285.237,0.591484
2293.59,0.593832
2302.002,0.5956382
2310.476,0.598191
2319.012,0.599891
2327.61,0.602842
2336.272,0.606149
2344.997,0.609422
2353.787,0.612369
2362.643,0.614255
2371.564,0.615416
2380.553,0.6165243
2389.609,0.618456
2398.733,0.61963
2407.926,0.621993
2417.19,0.624448
2426.524,0.625581
2435.93,0.626621
2445.408,0.627744
2454.959,0.627698
2464.585,0.628255
2474.285,0.628938
2484.062,0.629777
2493.915,0.629917
2503.845,0.6306
2513.855,0.631154
2523.944,0.63066
2534.113,0.63125
2544.364,0.632005
2554.697,0.631838
2565.113,0.632539
2575.615,0.633521
2586.201,0.634023
2596.874,0.634341
2607.635,0.633794
2618.485,0.6344649
2629.424,0.634394
2640.454,0.630436
2651.576,0.630838
2662.792,0.630152
2674.102,0.627242
2685.507,0.608604
2697.01,0.563462
2708.61,0.534523
2720.31,0.471069
2732.111,0.431994
2744.013,0.415633
2756.019,0.409053
2768.129,0.40061
2780.345,0.398403
2792.669,0.393349
2805.102,0.385574
2817.645,0.385089
2830.299,0.384026
2843.067,0.379567
2855.95,0.37899
2868.949,0.376687
2882.066,0.374302
2895.303,0.371137
2908.661,0.368838
2922.142,0.367183
2935.747,0.366339
2949.479,0.368576
2963.339,0.3693423
2977.328,0.3741172
2991.45,0.376509
3005.705,0.379306
3020.096,0.381901
3034.624,0.386406
3049.292,0.388053
3064.101,0.391194
3079.054,0.393539
3094.153,0.395711
3109.399,0.398431
3124.795,0.402213
3140.344,0.407056
3156.047,0.412732
3171.907,0.418033
3187.926,0.423205
3204.106,0.4270745
3220.451,0.432324
3236.963,0.433993
3253.643,0.438357
3270.495,0.441028
3287.522,0.4444897
3304.726,0.446775
3322.11,0.449218
3339.676,0.450711
3357.429,0.450471
3375.37,0.449162
3393.502,0.450489
3411.83,0.448356
3430.355,0.452829
3449.082,0.45886
3468.013,0.460316
3487.152,0.460609
3506.502,0.461557
3526.067,0.467816
3545.851,0.4701492
3565.856,0.472106
3586.088,0.473669
3606.549,0.473136
3627.244,0.473876
3648.176,0.475034
3669.351,0.474919
3690.771,0.475271
3712.442,0.474768
3734.368,0.476079
3756.553,0.476901
3779.001,0.477113
3801.719,0.4778083
3824.71,0.47862
3847.98,0.4802673
3871.533,0.481338
3895.375,0.482986
3919.512,0.483391
3943.948,0.485275
3968.689,0.488031
3993.742,0.490861
4019.111,0.493858
4044.804,0.496921
4070.825,0.500923
4097.183,0.504859
4123.882,0.509936
4150.931,0.515889
4178.335,0.521831
4206.102,0.5404759
4234.24,0.58723
4262.754,0.574246
4291.655,0.593198
4320.948,0.586771
4350.642,0.583409
4380.746,0.590068
4411.268,0.603027
4442.217,0.6152393
4473.602,0.624504
4505.431,0.632965
4537.716,0.6399518
4570.465,0.647856
4603.688,0.657094
4637.397,0.662917
4671.601,0.669207
4706.312,0.676719
4741.541,0.684921
4777.299,0.695664
4813.6,0.704252
4850.455,0.710523
4887.876,0.717426
4925.878,0.726544
4964.474,0.735302
5003.678,0.742137
5043.504,0.748904
5083.967,0.756709
5125.083,0.761416
5166.868,0.770053
5209.338,0.78689
5252.51,0.79367
5296.401,0.808069
5341.031,0.8190542
5386.417,0.823519
5432.579,0.838837
5479.537,0.867919
5527.312,0.934724
5575.925,0.574699
5625.399,0.751972
5675.757,0.789018
5727.022,0.813031
5779.22,0.8321662
5832.376,0.850458
5886.517,0.870984
5941.67,0.8748179
5997.864,0.873874
6055.129,0.887658
6113.495,0.891373
6172.996,0.894458
6233.663,0.899758
6295.533,0.905926
6358.64,0.918558
6423.023,0.927235
6488.721,0.935327
6555.774,0.936942
6624.224,0.946083
6694.117,0.944004
6765.497,0.949185
6838.413,0.952928
6912.916,0.954052
6989.057,0.958428
7066.891,0.962622
7146.475,0.968888
7227.869,0.970573
7311.135,0.975081
7396.34,0.9788901
7483.55,0.982951
7572.838,0.986014
7664.28,0.987275
7757.953,0.990439
7853.942,0.994455
7952.331,0.998759
8053.214,0.0100319
8156.686,0.0100646
8262.847,0.0101008
8371.804,0.0101387
8483.67,0.0101733
8598.562,0.0102012
8716.604,0.0102282
8837.928,0.0102639
8962.673,0.0102922
9090.986,0.0102912
9223.022,0.0102729
9358.945,0.0102634
9498.929,0.010274
9643.16,0.0102849
9791.834,0.0102968
9945.159,0.0102991
10103.357,0.0102994
10266.663,0.0103158
10435.331,0.0103307
10609.627,0.0103358
10789.839,0.0103391
10976.272,0.0103451
11169.256,0.0103474
11369.141,0.0103338
11576.304,0.0103162
11791.15,0.0103062
12014.114,0.0103069
12245.667,0.0103047
12486.313,0.0102959
12736.599,0.0102913
12997.116,0.010304
13268.505,0.0103106
13551.461,0.0103017
13846.739,0.0102806
14155.163,0.0102645
14477.629,0.0102244
14815.121,0.0101749
15168.712,0.0100725
15539.583,0.96693
15929.033,0.867379
15965.407,0.845683

File: FTIR_PYX_02.csv
Database of Origin,University of Winnipeg Spectrophotometer Facility
Sample Description,"HOSERLab master pyroxenes, FTIR data"
Date Added,2016-12-14 03:34:49.5455

Data ID,FTIR_PYX_02
Sample ID,PYX003
Mineral Name,Orthopyroxene
Grain Size,45-90 um
Viewing Geometry,"i=30, e=0"
Material Class,Inosilicate

Wavelength
2000.56,0.256769
2006.983,0.259911
2013.447,0.263602
2019.952,0.267161
2026.499,0.27024
2033.087,0.273615
2039.718,0.277766
2046.391,0.281298
2053.107,0.285606
2059.867,0.290019
2066.671,0.29484
2073.519,0.299608
2080.412,0.304384
2087.35,0.308879
2094.334,0.314228
2101.364,0.3194426
2108.441,0.324641
2115.565,0.329414
2122.736,0.335116
2129.956,0.340712
2137.224,0.346024
2144.541,0.352522
2151.907,0.357665
2159.324,0.363486
2166.791,0.369996
2174.309,0.376354
2181.879,0.382006
2189.501,0.3886343
2197.175,0.3946715
2204.903,0.400841
2212.685,0.407245
2220.521,0.413243
2228.412,0.417905
2236.359,0.422229
2244.361,0.4259235
2252.421,0.431555
2260.537,0.438239
2268.712,0.442511
2276.945,0.44692
2285.237,0.450591
2293.59,0.454267
2302.002,0.4575707
2310.476,0.461018
2319.012,0.464434
2327.61,0.468308
2336.272,0.47332
2344.997,0.477823
2353.787,0.4824132
2362.643,0.4859316
2371.564,0.488084
2380.553,0.4900284
2389.609,0.492911
2398.733,0.495234
2407.926,0.498611
2417.19,0.502
2426.524,0.503758
2435.93,0.505546
2445.408,0.507237
2454.959,0.508168
2464.585,0.5093012
2474.285,0.510566
2484.062,0.511289
2493.915,0.511601
2503.845,0.512468
2513.855,0.512718
2523.944,0.513265
2534.113,0.513762
2544.364,0.513791
2554.697,0.513579
2565.113,0.5141559
2575.615,0.5144527
2586.201,0.514967
2596.874,0.514643
2607.635,0.513494
2618.485,0.514835
2629.424,0.514055
2640.454,0.508952
2651.576,0.509702
2662.792,0.508929
2674.102,0.505044
2685.507,0.481115
2697.01,0.4250487
2708.61,0.401186
2720.31,0.355902
2732.111,0.324896
2744.013,0.316495
2756.019,0.31621
2768.129,0.3137642
2780.345,0.317683
2792.669,0.3150512
2805.102,0.305254
2817.645,0.305968
2830.299,0.306688
2843.067,0.300726
2855.95,0.301429
2868.949,0.3005997
2882.066,0.298032
2895.303,0.29575
2908.661,0.293059
2922.142,0.290645
2935.747,0.2891816
2949.479,0.291444
2963.339,0.291835
2977.328,0.294823
2991.45,0.295119
3005.705,0.295708
3020.096,0.29594
3034.624,0.299379
3049.292,0.298608
3064.101,0.3001302
3079.054,0.300106
3094.153,0.300252
3109.399,0.300812
3124.795,0.302473
3140.344,0.304653
3156.047,0.307767
3171.907,0.310426
3187.926,0.312519
3204.106,0.314577
3220.451,0.317399
3236.963,0.316851
3253.643,0.319975
3270.495,0.31959
3287.522,0.320299
3304.726,0.320834
3322.11,0.321528
3339.676,0.321098
3357.429,0.320505
3375.37,0.319194
3393.502,0.318699
3411.83,0.318477
3430.355,0.319363
3449.082,0.321523
3468.013,0.32108
3487.152,0.320966
3506.502,0.321127
3526.067,0.323259
3545.851,0.32291
3565.856,0.323087
3586.088,0.323995
3606.549,0.322826
3627.244,0.323325
3648.176,0.324124
3669.351,0.323962
3690.771,0.324057
3712.442,0.324672
3734.368,0.3260316
3756.553,0.327642
3779.001,0.328282
3801.719,0.329436
3824.71,0.330746
3847.98,0.333288
3871.533,0.335843
3895.375,0.338324
3919.512,0.340253
3943.948,0.34322
3968.689,0.347971
3993.742,0.352248
4019.111,0.356293
4044.804,0.360924
4070.825,0.3670198
4097.183,0.374126
4123.882,0.3818751
4150.931,0.39086
4178.335,0.400249
4206.102,0.4259155
4234.24,0.485769
4262.754,0.470742
4291.655,0.495655
4320.948,0.489915
4350.642,0.487138
4380.746,0.497879
4411.268,0.515719
4442.217,0.531387
4473.602,0.544147
4505.431,0.554741
4537.716,0.564385
4570.465,0.575017
4603.688,0.586615
4637.397,0.594998
4671.601,0.605317
4706.312,0.616133
4741.541,0.62818
4777.299,0.64153
4813.6,0.6529
4850.455,0.662197
4887.876,0.671501
4925.878,0.682227
4964.474,0.693353
5003.678,0.701886
5043.504,0.710961
5083.967,0.721788
5125.083,0.729113
5166.868,0.739883
5209.338,0.758909
5252.51,0.765342
5296.401,0.7807957
5341.031,0.793104
5386.417,0.797653
5432.579,0.813144
5479.537,0.840877
5527.312,0.9081874
5575.925,0.619289
5625.399,0.746379
5675.757,0.779473
5727.022,0.802559
5779.22,0.822964
5832.376,0.841968
5886.517,0.865282
5941.67,0.869952
5997.864,0.868847
6055.129,0.884689
6113.495,0.888263
6172.996,0.891762
6233.663,0.896053
6295.533,0.901811
6358.64,0.914935
6423.023,0.924761
6488.721,0.933669
6555.774,0.934594
6624.224,0.945424
6694.117,0.942016
6765.497,0.94804
6838.413,0.951491
6912.916,0.952605
6989.057,0.957746
7066.891,0.962211
7146.475,0.968558
7227.869,0.970601
7311.135,0.975646
7396.34,0.979622
7483.55,0.984068
7572.838,0.9871204
7664.28,0.988676
7757.953,0.99183
7853.942,0.996017
7952.331,0.0100047
8053.214,0.0100508
8156.686,0.0100835
8262.847,0.0101174
8371.804,0.0101534
8483.67,0.010184
8598.562,0.0102084
8716.604,0.0102333
8837.928,0.0102628
8962.673,0.0102874
9090.986,0.0102814
9223.022,0.0102532
9358.945,0.0102444
9498.929,0.0102522
9643.16,0.0102656
9791.834,0.0102808
9945.159,0.0102865
10103.357,0.010288
10266.663,0.0103063
10435.331,0.0103256
10609.627,0.01033423
10789.839,0.0103373
10976.272,0.0103436
11169.256,0.0103433
11369.141,0.0103299
11576.304,0.0103077
11791.15,0.0102988
12014.114,0.0103044
12245.667,0.0103041
12486.313,0.0102923
12736.599,0.0102892
12997.116,0.0103007
13268.505,0.0103135
13551.461,0.0103095
13846.739,0.0102801
14155.163,0.0102692
14477.629,0.0102395
14815.121,0.0102034
15168.712,0.010105
15539.583,0.962417
15929.033,0.819395
15965.407,0.791593

File: FTIR_PYX_03.csv
Database of Origin,University of Winnipeg Spectrophotometer Facility
Sample Description,"HOSERLab master pyroxenes, FTIR data"
Date Added,2016-12-14 03:34:49.5769

Data ID,FTIR_PYX_03
Sample ID,PYX023
Mineral Name,Orthopyroxene
Grain Size,<45 um
Viewing Geometry,"i=30, e=0"
Material Class,Inosilicate

Wavelength
2000.56,0.587388
2006.983,0.590126
2013.447,0.592583
2019.952,0.595187
2026.499,0.597784
2033.087,0.6001819
2039.718,0.603336
2046.391,0.606215
2053.107,0.609559
2059.867,0.612593
2066.671,0.614541
2073.519,0.617512
2080.412,0.619317
2087.35,0.622046
2094.334,0.624148
2101.364,0.627745
2108.441,0.631341
2115.565,0.63421
2122.736,0.636988
2129.956,0.637909
2137.224,0.642446
2144.541,0.6457321
2151.907,0.647964
2159.324,0.6499115
2166.791,0.651831
2174.309,0.653832
2181.879,0.655227
2189.501,0.658786
2197.175,0.6598496
2204.903,0.661785
2212.685,0.6629206
2220.521,0.663779
2228.412,0.662317
2236.359,0.65998
2244.361,0.658285
2252.421,0.657574
2260.537,0.655833
2268.712,0.649901
2276.945,0.64759
2285.237,0.6422748
2293.59,0.634698
2302.002,0.631228
2310.476,0.622688
2319.012,0.61788
2327.61,0.624281
2336.272,0.630721
2344.997,0.640702
2353.787,0.647842
2362.643,0.6500484
2371.564,0.645624
2380.553,0.6400316
2389.609,0.639416
2398.733,0.642339
2407.926,0.644401
2417.19,0.642797
2426.524,0.640868
2435.93,0.639077
2445.408,0.6388257
2454.959,0.638782
2464.585,0.63822
2474.285,0.636352
2484.062,0.634248
2493.915,0.631277
2503.845,0.6290065
2513.855,0.6290199
2523.944,0.630237
2534.113,0.630656
2544.364,0.6301801
2554.697,0.629514
2565.113,0.628765
2575.615,0.631228
2586.201,0.631995
2596.874,0.6319309
2607.635,0.631876
2618.485,0.63235
2629.424,0.632115
2640.454,0.626997
2651.576,0.621798
2662.792,0.611395
2674.102,0.5783499
2685.507,0.476929
2697.01,0.286351
2708.61,0.1929233
2720.31,0.185815
2732.111,0.176573
2744.013,0.17816
2756.019,0.184439
2768.129,0.189828
2780.345,0.196411
2792.669,0.202517
2805.102,0.206722
2817.645,0.211958
2830.299,0.215774
2843.067,0.2186512
2855.95,0.220679
2868.949,0.223022
2882.066,0.224064
2895.303,0.224537
2908.661,0.224418
2922.142,0.225664
2935.747,0.2258
2949.479,0.228861
2963.339,0.2297075
2977.328,0.234805
2991.45,0.238188
3005.705,0.242129
3020.096,0.2456333
3034.624,0.251741
3049.292,0.25421
3064.101,0.258538
3079.054,0.260801
3094.153,0.263676
3109.399,0.267535
3124.795,0.272775
3140.344,0.277952
3156.047,0.284015
3171.907,0.2911552
3187.926,0.297084
3204.106,0.303878
3220.451,0.311533
3236.963,0.315904
3253.643,0.323677
3270.495,0.329192
3287.522,0.3345793
3304.726,0.3392879
3322.11,0.344652
3339.676,0.3484044
3357.429,0.3515459
3375.37,0.353557
3393.502,0.3568515
3411.83,0.357782
3430.355,0.365222
3449.082,0.373647
3468.013,0.37791
3487.152,0.381836
3506.502,0.384904
3526.067,0.393774
3545.851,0.399337
3565.856,0.4039538
3586.088,0.408111
3606.549,0.410882
3627.244,0.414985
3648.176,0.418773
3669.351,0.422185
3690.771,0.426077
3712.442,0.430157
3734.368,0.434373
3756.553,0.439143
3779.001,0.442658
3801.719,0.445912
3824.71,0.449457
3847.98,0.453709
3871.533,0.4585611
3895.375,0.462698
3919.512,0.4666789
3943.948,0.470856
3968.689,0.476341
3993.742,0.4811879
4019.111,0.484869
4044.804,0.487774
4070.825,0.492535
4097.183,0.497214
4123.882,0.502731
4150.931,0.5087485
4178.335,0.514476
4206.102,0.534032
4234.24,0.585665
4262.754,0.568612
4291.655,0.589578
4320.948,0.580552
4350.642,0.5761257
4380.746,0.583267
4411.268,0.596378
4442.217,0.608174
4473.602,0.61796
4505.431,0.625513
4537.716,0.631074
4570.465,0.637144
4603.688,0.642989
4637.397,0.646874
4671.601,0.655163
4706.312,0.664424
4741.541,0.67195
4777.299,0.679687
4813.6,0.686246
4850.455,0.692333
4887.876,0.699299
4925.878,0.710001
4964.474,0.717911
5003.678,0.72356
5043.504,0.727995
5083.967,0.734818
5125.083,0.739025
5166.868,0.749057
5209.338,0.76863
5252.51,0.773619
5296.401,0.786581
5341.031,0.79669
5386.417,0.799914
5432.579,0.812827
5479.537,0.829544
5527.312,0.845554
5575.925,0.717284
5625.399,0.821386
5675.757,0.82846
5727.022,0.839574
5779.22,0.851068
5832.376,0.863251
5886.517,0.8831722
5941.67,0.883017
5997.864,0.878004
6055.129,0.895459
6113.495,0.897918
6172.996,0.896627
6233.663,0.893192
6295.533,0.896077
6358.64,0.908804
6423.023,0.919214
6488.721,0.92785
6555.774,0.927481
6624.224,0.937147
6694.117,0.931161
6765.497,0.936334
6838.413,0.939482
6912.916,0.938965
6989.057,0.943974
7066.891,0.947662
7146.475,0.954482
7227.869,0.955278
7311.135,0.959529
7396.34,0.9632672
7483.55,0.967173
7572.838,0.969777
7664.28,0.970623
7757.953,0.973367
7853.942,0.977521
7952.331,0.981781
8053.214,0.985692
8156.686,0.988606
8262.847,0.991792
8371.804,0.995371
8483.67,0.99788
8598.562,0.999516
8716.604,0.0100144
8837.928,0.0100469
8962.673,0.0100782
9090.986,0.0100752
9223.022,0.0100473
9358.945,0.0100399
9498.929,0.0100552
9643.16,0.0100697
9791.834,0.0100767
9945.159,0.0100744
10103.357,0.010085
10266.663,0.0101133
10435.331,0.0101263
10609.627,0.0101291
10789.839,0.010123
10976.272,0.0101239
11169.256,0.0101249
11369.141,0.0101108
11576.304,0.0100869
11791.15,0.0100793
12014.114,0.0100903
12245.667,0.0100829
12486.313,0.0100671
12736.599,0.0100548
12997.116,0.0100686
13268.505,0.010086
13551.461,0.0100846
13846.739,0.0100466
14155.163,0.0100275
14477.629,0.998757
14815.121,0.990857
15168.712,0.972027
15539.583,0.901892
15929.033,0.769726
15965.407,0.753293

File: FTIR_PYX_04.csv
Database of Origin,University of Winnipeg Spectrophotometer Facility
Sample Description,"HOSERLab master pyroxenes, FTIR data"
Date Added,2016-12-14 03:34:49.6086

Data ID,FTIR_PYX_04
Sample ID,PYX023
Mineral Name,Orthopyroxene
Grain Size,45-90 um
Viewing Geometry,"i=30, e=0"
Material Class,Inosilicate

Wavelength
2000.56,0.335758
2006.983,0.340025
2013.447,0.344012
2019.952,0.348552
2026.499,0.352683
2033.087,0.357372
2039.718,0.362627
2046.391,0.366677
2053.107,0.371668
2059.867,0.376512
2066.671,0.380561
2073.519,0.3861408
2080.412,0.390555
2087.35,0.395247
2094.334,0.40036
2101.364,0.405824
2108.441,0.411515
2115.565,0.415864
2122.736,0.421276
2129.956,0.425593
2137.224,0.43198
2144.541,0.437997
2151.907,0.442398
2159.324,0.447665
2166.791,0.452226
2174.309,0.456696
2181.879,0.460801
2189.501,0.465683
2197.175,0.469749
2204.903,0.473725
2212.685,0.477286
2220.521,0.479108
2228.412,0.480138
2236.359,0.4786
2244.361,0.478479
2252.421,0.47954
2260.537,0.478652
2268.712,0.473674
2276.945,0.471691
2285.237,0.467315
2293.59,0.460338
2302.002,0.457098
2310.476,0.4477676
2319.012,0.442186
2327.61,0.450047
2336.272,0.458965
2344.997,0.474038
2353.787,0.484061
2362.643,0.4882043
2371.564,0.4843237
2380.553,0.477395
2389.609,0.477751
2398.733,0.482037
2407.926,0.485368
2417.19,0.483969
2426.524,0.481838
2435.93,0.480562
2445.408,0.480998
2454.959,0.481564
2464.585,0.481201
2474.285,0.478784
2484.062,0.477129
2493.915,0.473074
2503.845,0.47044
2513.855,0.4709994
2523.944,0.473715
2534.113,0.476009
2544.364,0.477277
2554.697,0.476012
2565.113,0.476735
2575.615,0.47972
2586.201,0.481728
2596.874,0.483184
2607.635,0.48341
2618.485,0.485205
2629.424,0.4845429
2640.454,0.476775
2651.576,0.469322
2662.792,0.457643
2674.102,0.417972
2685.507,0.316844
2697.01,0.175863
2708.61,0.1315008
2720.31,0.128294
2732.111,0.107298
2744.013,0.09921582
2756.019,0.09967754
2768.129,0.09990843
2780.345,0.1016903
2792.669,0.105057
2805.102,0.107405
2817.645,0.1098422
2830.299,0.112225
2843.067,0.112108
2855.95,0.113776
2868.949,0.1151024
2882.066,0.115911
2895.303,0.115286
2908.661,0.115241
2922.142,0.116492
2935.747,0.116782
2949.479,0.120594
2963.339,0.121442
2977.328,0.126075
2991.45,0.1275675
3005.705,0.129948
3020.096,0.132747
3034.624,0.138161
3049.292,0.1393221
3064.101,0.142969
3079.054,0.144579
3094.153,0.146946
3109.399,0.149116
3124.795,0.152612
3140.344,0.156486
3156.047,0.160696
3171.907,0.165437
3187.926,0.170212
3204.106,0.175052
3220.451,0.181391
3236.963,0.184099
3253.643,0.190415
3270.495,0.192722
3287.522,0.196193
3304.726,0.2003906
3322.11,0.204299
3339.676,0.207201
3357.429,0.211051
3375.37,0.213715
3393.502,0.216626
3411.83,0.219264
3430.355,0.223196
3449.082,0.229438
3468.013,0.23245
3487.152,0.236001
3506.502,0.238706
3526.067,0.244608
3545.851,0.248861
3565.856,0.252803
3586.088,0.25664
3606.549,0.258821
3627.244,0.262341
3648.176,0.266604
3669.351,0.269663
3690.771,0.2733585
3712.442,0.277421
3734.368,0.281803
3756.553,0.286663
3779.001,0.290159
3801.719,0.294599
3824.71,0.299516
3847.98,0.304473
3871.533,0.30975
3895.375,0.3149545
3919.512,0.320298
3943.948,0.325579
3968.689,0.332554
3993.742,0.337963
4019.111,0.343385
4044.804,0.348662
4070.825,0.354775
4097.183,0.362536
4123.882,0.370923
4150.931,0.379661
4178.335,0.388961
4206.102,0.415407
4234.24,0.479385
4262.754,0.462192
4291.655,0.488916
4320.948,0.481526
4350.642,0.4777
4380.746,0.488846
4411.268,0.506404
4442.217,0.52225
4473.602,0.534113
4505.431,0.544089
4537.716,0.551152
4570.465,0.5583926
4603.688,0.566062
4637.397,0.571829
4671.601,0.582971
4706.312,0.596208
4741.541,0.607882
4777.299,0.619184
4813.6,0.629519
4850.455,0.63903
4887.876,0.649734
4925.878,0.661489
4964.474,0.673467
5003.678,0.68167
5043.504,0.689217
5083.967,0.699564
5125.083,0.706771
5166.868,0.719054
5209.338,0.740332
5252.51,0.746317
5296.401,0.7612705
5341.031,0.773219
5386.417,0.777776
5432.579,0.7941497
5479.537,0.820942
5527.312,0.869508
5575.925,0.602572
5625.399,0.745663
5675.757,0.775099
5727.022,0.795328
5779.22,0.814554
5832.376,0.834557
5886.517,0.857399
5941.67,0.860916
5997.864,0.858831
6055.129,0.876116
6113.495,0.881042
6172.996,0.88295
6233.663,0.8836335
6295.533,0.888379
6358.64,0.901949
6423.023,0.9126496
6488.721,0.922065
6555.774,0.922973
6624.224,0.933256
6694.117,0.929259
6765.497,0.935033
6838.413,0.938539
6912.916,0.939122
6989.057,0.944411
7066.891,0.9490495
7146.475,0.955936
7227.869,0.957649
7311.135,0.962217
7396.34,0.96638
7483.55,0.971165
7572.838,0.974243
7664.28,0.9753207
7757.953,0.978282
7853.942,0.982807
7952.331,0.987116
8053.214,0.991436
8156.686,0.994296
8262.847,0.997387
8371.804,0.010011
8483.67,0.0100353
8598.562,0.0100503
8716.604,0.0100647
8837.928,0.0100887
8962.673,0.01011819
9090.986,0.0101124
9223.022,0.0100862
9358.945,0.0100783
9498.929,0.0100951
9643.16,0.0101173
9791.834,0.01012
9945.159,0.0101167
10103.357,0.0101254
10266.663,0.0101507
10435.331,0.0101659
10609.627,0.01017
10789.839,0.010166
10976.272,0.0101746
11169.256,0.0101783
11369.141,0.0101572
11576.304,0.0101313
11791.15,0.0101297
12014.114,0.0101476
12245.667,0.0101488
12486.313,0.0101318
12736.599,0.0101203
12997.116,0.0101289
13268.505,0.0101466
13551.461,0.0101426
13846.739,0.0101017
14155.163,0.0100808
14477.629,0.0100369
14815.121,0.99658
15168.712,0.975569
15539.583,0.899475
15929.033,0.743967
15965.407,0.72263